Labels	APDES_1_br15_1	
Type	Time Scan	
Comment		
Start	0.00	
Stop	1999.511700	
Step	0.48828125	
Fixed/Offset	 	
XAxis	Time(ns)	
YAxis	Counts	

0.00	0.00000000E+0	
0.48828125	0.00000000E+0	
0.97656250	0.00000000E+0	
1.4648438	0.00000000E+0	
1.9531250	0.00000000E+0	
2.4414063	0.00000000E+0	
2.9296875	0.00000000E+0	
3.4179688	0.00000000E+0	
3.906250	0.00000000E+0	
4.3945313	0.00000000E+0	
4.8828125	0.00000000E+0	
5.3710938	0.00000000E+0	
5.8593750	0.00000000E+0	
6.3476563	0.00000000E+0	
6.8359375	0.00000000E+0	
7.3242188	0.00000000E+0	
7.81250	0.00000000E+0	
8.3007813	0.00000000E+0	
8.7890625	0.00000000E+0	
9.2773438	0.00000000E+0	
9.7656250	0.00000000E+0	
10.253906	0.00000000E+0	
10.742188	0.00000000E+0	
11.230469	0.00000000E+0	
11.718750	0.00000000E+0	
12.207031	0.00000000E+0	
12.695313	0.00000000E+0	
13.183594	0.00000000E+0	
13.671875	0.00000000E+0	
14.160156	0.00000000E+0	
14.648438	0.00000000E+0	
15.136719	0.00000000E+0	
15.6250	0.00000000E+0	
16.113281	0.00000000E+0	
16.601563	0.00000000E+0	
17.089844	0.00000000E+0	
17.578125	0.00000000E+0	
18.066406	0.00000000E+0	
18.554688	0.00000000E+0	
19.042969	0.00000000E+0	
19.531250	0.00000000E+0	
20.019531	0.00000000E+0	
20.507813	0.00000000E+0	
20.996094	0.00000000E+0	
21.484375	0.00000000E+0	
21.972656	0.00000000E+0	
22.460938	0.00000000E+0	
22.949219	0.00000000E+0	
23.43750	0.00000000E+0	
23.925781	0.00000000E+0	
24.414063	0.00000000E+0	
24.902344	0.00000000E+0	
25.390625	0.00000000E+0	
25.878906	0.00000000E+0	
26.367188	0.00000000E+0	
26.855469	0.00000000E+0	
27.343750	0.00000000E+0	
27.832031	0.00000000E+0	
28.320313	0.00000000E+0	
28.808594	0.00000000E+0	
29.296875	0.00000000E+0	
29.785156	0.00000000E+0	
30.273438	0.00000000E+0	
30.761719	0.00000000E+0	
31.250	0.00000000E+0	
31.738281	0.00000000E+0	
32.226563	0.00000000E+0	
32.714844	0.00000000E+0	
33.203125	0.00000000E+0	
33.691406	0.00000000E+0	
34.179688	0.00000000E+0	
34.667969	0.00000000E+0	
35.156250	0.00000000E+0	
35.644531	0.00000000E+0	
36.132813	0.00000000E+0	
36.621094	0.00000000E+0	
37.109375	0.00000000E+0	
37.597656	0.00000000E+0	
38.085938	0.00000000E+0	
38.574219	0.00000000E+0	
39.06250	0.00000000E+0	
39.550781	0.00000000E+0	
40.039063	0.00000000E+0	
40.527344	0.00000000E+0	
41.015625	0.00000000E+0	
41.503906	6.00000000E+0	
41.992188	1.70000000E+1	
42.480469	1.60000000E+1	
42.968750	1.30000000E+1	
43.457031	1.80000000E+1	
43.945313	1.00000000E+1	
44.433594	5.00000000E+0	
44.921875	1.20000000E+1	
45.410156	1.00000000E+1	
45.898438	1.00000000E+1	
46.386719	1.60000000E+1	
46.8750	1.30000000E+1	
47.363281	1.40000000E+1	
47.851563	1.10000000E+1	
48.339844	1.70000000E+1	
48.828125	1.60000000E+1	
49.316406	1.50000000E+1	
49.804688	1.20000000E+1	
50.292969	1.80000000E+1	
50.781250	2.30000000E+1	
51.269531	1.30000000E+1	
51.757813	1.50000000E+1	
52.246094	1.40000000E+1	
52.734375	1.10000000E+1	
53.222656	1.20000000E+1	
53.710938	1.30000000E+1	
54.199219	1.80000000E+1	
54.68750	1.40000000E+1	
55.175781	1.00000000E+1	
55.664063	6.00000000E+0	
56.152344	1.10000000E+1	
56.640625	8.00000000E+0	
57.128906	8.00000000E+0	
57.617188	1.60000000E+1	
58.105469	1.30000000E+1	
58.593750	8.00000000E+0	
59.082031	1.20000000E+1	
59.570313	1.20000000E+1	
60.058594	1.50000000E+1	
60.546875	1.00000000E+1	
61.035156	2.90000000E+1	
61.523438	3.80000000E+1	
62.011719	6.90000000E+1	
62.50	8.40000000E+1	
62.988281	6.60000000E+1	
63.476563	5.30000000E+1	
63.964844	4.70000000E+1	
64.453125	3.60000000E+1	
64.941406	2.70000000E+1	
65.429688	5.00000000E+1	
65.917969	4.30000000E+1	
66.406250	3.60000000E+1	
66.894531	3.70000000E+1	
67.382813	4.10000000E+1	
67.871094	3.60000000E+1	
68.359375	3.40000000E+1	
68.847656	3.20000000E+1	
69.335938	3.80000000E+1	
69.824219	3.10000000E+1	
70.31250	3.00000000E+1	
70.800781	4.50000000E+1	
71.289063	2.50000000E+1	
71.777344	3.30000000E+1	
72.265625	3.20000000E+1	
72.753906	4.60000000E+1	
73.242188	3.20000000E+1	
73.730469	3.50000000E+1	
74.218750	2.70000000E+1	
74.707031	2.50000000E+1	
75.195313	3.40000000E+1	
75.683594	3.40000000E+1	
76.171875	4.30000000E+1	
76.660156	2.60000000E+1	
77.148438	2.80000000E+1	
77.636719	3.80000000E+1	
78.1250	4.10000000E+1	
78.613281	3.10000000E+1	
79.101563	3.10000000E+1	
79.589844	3.10000000E+1	
80.078125	3.00000000E+1	
80.566406	3.90000000E+1	
81.054688	3.90000000E+1	
81.542969	3.70000000E+1	
82.031250	3.30000000E+1	
82.519531	2.50000000E+1	
83.007813	2.70000000E+1	
83.496094	2.40000000E+1	
83.984375	2.30000000E+1	
84.472656	1.60000000E+1	
84.960938	2.20000000E+1	
85.449219	2.90000000E+1	
85.93750	3.00000000E+1	
86.425781	3.40000000E+1	
86.914063	2.30000000E+1	
87.402344	3.40000000E+1	
87.890625	2.80000000E+1	
88.378906	4.20000000E+1	
88.867188	3.40000000E+1	
89.355469	2.70000000E+1	
89.843750	3.60000000E+1	
90.332031	3.40000000E+1	
90.820313	4.30000000E+1	
91.308594	2.80000000E+1	
91.796875	3.30000000E+1	
92.285156	3.40000000E+1	
92.773438	2.60000000E+1	
93.261719	3.10000000E+1	
93.750	2.70000000E+1	
94.238281	2.80000000E+1	
94.726563	2.40000000E+1	
95.214844	3.20000000E+1	
95.703125	2.30000000E+1	
96.191406	2.80000000E+1	
96.679688	2.80000000E+1	
97.167969	3.20000000E+1	
97.656250	3.20000000E+1	
98.144531	3.40000000E+1	
98.632813	3.70000000E+1	
99.121094	2.20000000E+1	
99.609375	2.90000000E+1	
100.097660	2.10000000E+1	
100.585940	2.40000000E+1	
101.074220	2.50000000E+1	
101.562500	3.70000000E+1	
102.050780	2.50000000E+1	
102.539060	2.80000000E+1	
103.027340	2.70000000E+1	
103.515630	2.50000000E+1	
104.003910	2.80000000E+1	
104.492190	3.00000000E+1	
104.980470	2.50000000E+1	
105.468750	2.50000000E+1	
105.95700	2.50000000E+1	
106.445310	2.70000000E+1	
106.933590	2.90000000E+1	
107.421880	2.90000000E+1	
107.910160	3.10000000E+1	
108.398440	2.10000000E+1	
108.886720	3.00000000E+1	
109.37500	3.30000000E+1	
109.863280	3.50000000E+1	
110.351560	2.80000000E+1	
110.839840	1.80000000E+1	
111.328130	3.70000000E+1	
111.816410	3.60000000E+1	
112.304690	3.30000000E+1	
112.79300	3.10000000E+1	
113.281250	3.10000000E+1	
113.769530	2.00000000E+1	
114.257810	3.10000000E+1	
114.746090	2.70000000E+1	
115.234380	2.70000000E+1	
115.722660	2.40000000E+1	
116.210940	2.20000000E+1	
116.699220	3.80000000E+1	
117.187500	1.80000000E+1	
117.675780	2.30000000E+1	
118.164060	2.60000000E+1	
118.652340	3.10000000E+1	
119.140630	2.20000000E+1	
119.628910	2.50000000E+1	
120.117190	3.00000000E+1	
120.605470	2.70000000E+1	
121.093750	2.40000000E+1	
121.58200	3.00000000E+1	
122.070310	3.40000000E+1	
122.558590	3.20000000E+1	
123.046880	3.10000000E+1	
123.535160	2.70000000E+1	
124.023440	2.70000000E+1	
124.511720	3.40000000E+1	
125.00	3.10000000E+1	
125.488280	3.10000000E+1	
125.976560	3.50000000E+1	
126.464840	2.30000000E+1	
126.953130	4.00000000E+1	
127.441410	3.40000000E+1	
127.929690	3.10000000E+1	
128.41800	2.40000000E+1	
128.906250	2.60000000E+1	
129.394530	2.90000000E+1	
129.882810	2.80000000E+1	
130.371090	2.60000000E+1	
130.859380	3.20000000E+1	
131.347660	2.50000000E+1	
131.835940	2.50000000E+1	
132.324220	3.40000000E+1	
132.812500	2.60000000E+1	
133.300780	2.50000000E+1	
133.789060	2.30000000E+1	
134.277340	2.80000000E+1	
134.765630	2.80000000E+1	
135.253910	2.40000000E+1	
135.742190	2.80000000E+1	
136.230470	2.80000000E+1	
136.718750	1.90000000E+1	
137.20700	2.60000000E+1	
137.695310	2.60000000E+1	
138.183590	3.20000000E+1	
138.671880	2.10000000E+1	
139.160160	2.00000000E+1	
139.648440	2.30000000E+1	
140.136720	2.80000000E+1	
140.62500	2.10000000E+1	
141.113280	2.40000000E+1	
141.601560	2.00000000E+1	
142.089840	2.60000000E+1	
142.578130	2.90000000E+1	
143.066410	2.10000000E+1	
143.554690	2.80000000E+1	
144.04300	2.90000000E+1	
144.531250	2.80000000E+1	
145.019530	2.40000000E+1	
145.507810	1.50000000E+1	
145.996090	2.80000000E+1	
146.484380	1.60000000E+1	
146.972660	1.90000000E+1	
147.460940	2.90000000E+1	
147.949220	3.60000000E+1	
148.437500	2.90000000E+1	
148.925780	3.30000000E+1	
149.414060	2.30000000E+1	
149.902340	2.50000000E+1	
150.390630	3.10000000E+1	
150.878910	2.80000000E+1	
151.367190	2.90000000E+1	
151.855470	2.70000000E+1	
152.343750	3.00000000E+1	
152.83200	3.00000000E+1	
153.320310	2.50000000E+1	
153.808590	2.60000000E+1	
154.296880	1.40000000E+1	
154.785160	2.30000000E+1	
155.273440	3.00000000E+1	
155.761720	1.60000000E+1	
156.2500	3.10000000E+1	
156.738280	2.60000000E+1	
157.226560	2.80000000E+1	
157.714840	1.70000000E+1	
158.203130	1.50000000E+1	
158.691410	3.10000000E+1	
159.179690	2.00000000E+1	
159.66800	2.70000000E+1	
160.156250	2.50000000E+1	
160.644530	2.60000000E+1	
161.132810	3.00000000E+1	
161.621090	3.10000000E+1	
162.109380	2.70000000E+1	
162.597660	2.70000000E+1	
163.085940	2.40000000E+1	
163.574220	3.20000000E+1	
164.062500	3.20000000E+1	
164.550780	3.10000000E+1	
165.039060	2.70000000E+1	
165.527340	3.00000000E+1	
166.015630	2.60000000E+1	
166.503910	3.30000000E+1	
166.992190	2.70000000E+1	
167.480470	2.60000000E+1	
167.968750	3.20000000E+1	
168.45700	2.80000000E+1	
168.945310	3.10000000E+1	
169.433590	2.90000000E+1	
169.921880	2.50000000E+1	
170.410160	2.40000000E+1	
170.898440	2.10000000E+1	
171.386720	3.80000000E+1	
171.87500	1.80000000E+1	
172.363280	2.20000000E+1	
172.851560	2.00000000E+1	
173.339840	1.80000000E+1	
173.828130	3.20000000E+1	
174.316410	2.00000000E+1	
174.804690	3.10000000E+1	
175.29300	3.50000000E+1	
175.781250	2.80000000E+1	
176.269530	2.20000000E+1	
176.757810	2.20000000E+1	
177.246090	2.80000000E+1	
177.734380	2.50000000E+1	
178.222660	1.80000000E+1	
178.710940	1.70000000E+1	
179.199220	2.00000000E+1	
179.687500	2.60000000E+1	
180.175780	2.40000000E+1	
180.664060	2.70000000E+1	
181.152340	3.10000000E+1	
181.640630	1.90000000E+1	
182.128910	2.20000000E+1	
182.617190	2.10000000E+1	
183.105470	2.80000000E+1	
183.593750	2.30000000E+1	
184.08200	2.80000000E+1	
184.570310	2.90000000E+1	
185.058590	3.70000000E+1	
185.546880	2.40000000E+1	
186.035160	2.00000000E+1	
186.523440	2.60000000E+1	
187.011720	2.90000000E+1	
187.500	2.20000000E+1	
187.988280	2.10000000E+1	
188.476560	3.30000000E+1	
188.964840	2.30000000E+1	
189.453130	2.50000000E+1	
189.941410	2.90000000E+1	
190.429690	3.40000000E+1	
190.91800	3.60000000E+1	
191.406250	2.60000000E+1	
191.894530	3.10000000E+1	
192.382810	3.20000000E+1	
192.871090	2.00000000E+1	
193.359380	2.10000000E+1	
193.847660	1.90000000E+1	
194.335940	2.40000000E+1	
194.824220	1.90000000E+1	
195.312500	3.20000000E+1	
195.800780	2.70000000E+1	
196.289060	2.50000000E+1	
196.777340	2.70000000E+1	
197.265630	2.90000000E+1	
197.753910	2.70000000E+1	
198.242190	2.60000000E+1	
198.730470	2.40000000E+1	
199.218750	2.60000000E+1	
199.70700	3.20000000E+1	
200.195310	2.70000000E+1	
200.683590	2.80000000E+1	
201.171880	2.60000000E+1	
201.660160	2.70000000E+1	
202.148440	2.60000000E+1	
202.636720	2.90000000E+1	
203.12500	2.50000000E+1	
203.613280	2.20000000E+1	
204.101560	2.30000000E+1	
204.589840	2.30000000E+1	
205.078130	1.50000000E+1	
205.566410	2.80000000E+1	
206.054690	3.00000000E+1	
206.54300	2.70000000E+1	
207.031250	2.30000000E+1	
207.519530	2.50000000E+1	
208.007810	2.80000000E+1	
208.496090	3.00000000E+1	
208.984380	2.30000000E+1	
209.472660	2.10000000E+1	
209.960940	3.00000000E+1	
210.449220	2.10000000E+1	
210.937500	3.90000000E+1	
211.425780	2.20000000E+1	
211.914060	2.60000000E+1	
212.402340	2.50000000E+1	
212.890630	3.00000000E+1	
213.378910	2.00000000E+1	
213.867190	2.90000000E+1	
214.355470	2.60000000E+1	
214.843750	3.00000000E+1	
215.33200	3.50000000E+1	
215.820310	1.80000000E+1	
216.308590	2.40000000E+1	
216.796880	2.80000000E+1	
217.285160	2.80000000E+1	
217.773440	2.30000000E+1	
218.261720	2.30000000E+1	
218.7500	2.70000000E+1	
219.238280	1.80000000E+1	
219.726560	2.00000000E+1	
220.214840	1.70000000E+1	
220.703130	1.70000000E+1	
221.191410	2.80000000E+1	
221.679690	1.70000000E+1	
222.16800	2.50000000E+1	
222.656250	2.10000000E+1	
223.144530	2.40000000E+1	
223.632810	2.70000000E+1	
224.121090	2.00000000E+1	
224.609380	2.20000000E+1	
225.097660	2.40000000E+1	
225.585940	1.30000000E+1	
226.074220	3.30000000E+1	
226.562500	1.60000000E+1	
227.050780	2.10000000E+1	
227.539060	2.80000000E+1	
228.027340	2.30000000E+1	
228.515630	2.80000000E+1	
229.003910	2.20000000E+1	
229.492190	2.00000000E+1	
229.980470	1.80000000E+1	
230.468750	2.20000000E+1	
230.95700	1.20000000E+1	
231.445310	2.50000000E+1	
231.933590	2.40000000E+1	
232.421880	2.30000000E+1	
232.910160	1.70000000E+1	
233.398440	2.40000000E+1	
233.886720	3.10000000E+1	
234.37500	1.50000000E+1	
234.863280	2.80000000E+1	
235.351560	3.00000000E+1	
235.839840	3.00000000E+1	
236.328130	2.60000000E+1	
236.816410	2.50000000E+1	
237.304690	2.20000000E+1	
237.79300	2.50000000E+1	
238.281250	1.60000000E+1	
238.769530	2.50000000E+1	
239.257810	2.10000000E+1	
239.746090	1.80000000E+1	
240.234380	3.10000000E+1	
240.722660	3.30000000E+1	
241.210940	1.90000000E+1	
241.699220	1.90000000E+1	
242.187500	1.70000000E+1	
242.675780	1.90000000E+1	
243.164060	2.30000000E+1	
243.652340	2.20000000E+1	
244.140630	2.90000000E+1	
244.628910	2.00000000E+1	
245.117190	2.80000000E+1	
245.605470	2.20000000E+1	
246.093750	2.50000000E+1	
246.58200	2.90000000E+1	
247.070310	2.50000000E+1	
247.558590	2.50000000E+1	
248.046880	1.80000000E+1	
248.535160	2.90000000E+1	
249.023440	1.70000000E+1	
249.511720	1.70000000E+1	
250.00	1.60000000E+1	
250.488280	2.90000000E+1	
250.976560	2.20000000E+1	
251.464840	2.10000000E+1	
251.953130	2.20000000E+1	
252.441410	2.10000000E+1	
252.929690	2.50000000E+1	
253.41800	2.00000000E+1	
253.906250	3.00000000E+1	
254.394530	1.70000000E+1	
254.882810	2.00000000E+1	
255.371090	2.20000000E+1	
255.859380	2.40000000E+1	
256.347660	2.40000000E+1	
256.835940	2.10000000E+1	
257.324220	1.20000000E+1	
257.812500	2.30000000E+1	
258.300780	2.20000000E+1	
258.789060	2.80000000E+1	
259.277340	2.40000000E+1	
259.765630	2.20000000E+1	
260.253910	1.90000000E+1	
260.742190	3.30000000E+1	
261.230470	2.70000000E+1	
261.718750	2.60000000E+1	
262.20700	2.00000000E+1	
262.695310	3.00000000E+1	
263.183590	2.60000000E+1	
263.671880	2.20000000E+1	
264.160160	2.20000000E+1	
264.648440	2.40000000E+1	
265.136720	3.00000000E+1	
265.62500	2.40000000E+1	
266.113280	3.20000000E+1	
266.601560	1.90000000E+1	
267.089840	2.10000000E+1	
267.578130	2.10000000E+1	
268.066410	2.40000000E+1	
268.554690	1.20000000E+1	
269.04300	1.90000000E+1	
269.531250	2.70000000E+1	
270.019530	2.10000000E+1	
270.507810	2.80000000E+1	
270.996090	2.00000000E+1	
271.484380	2.80000000E+1	
271.972660	2.50000000E+1	
272.460940	1.90000000E+1	
272.949220	2.70000000E+1	
273.437500	2.90000000E+1	
273.925780	2.50000000E+1	
274.414060	2.40000000E+1	
274.902340	2.30000000E+1	
275.390630	2.60000000E+1	
275.878910	2.90000000E+1	
276.367190	1.70000000E+1	
276.855470	2.50000000E+1	
277.343750	1.80000000E+1	
277.83200	2.40000000E+1	
278.320310	2.50000000E+1	
278.808590	2.50000000E+1	
279.296880	2.20000000E+1	
279.785160	2.10000000E+1	
280.273440	2.80000000E+1	
280.761720	2.50000000E+1	
281.2500	1.60000000E+1	
281.738280	2.20000000E+1	
282.226560	2.60000000E+1	
282.714840	2.80000000E+1	
283.203130	2.30000000E+1	
283.691410	2.30000000E+1	
284.179690	3.00000000E+1	
284.66800	2.40000000E+1	
285.156250	1.60000000E+1	
285.644530	1.60000000E+1	
286.132810	1.80000000E+1	
286.621090	2.80000000E+1	
287.109380	3.70000000E+1	
287.597660	2.60000000E+1	
288.085940	3.00000000E+1	
288.574220	1.50000000E+1	
289.062500	2.80000000E+1	
289.550780	1.60000000E+1	
290.039060	2.50000000E+1	
290.527340	2.70000000E+1	
291.015630	2.70000000E+1	
291.503910	2.70000000E+1	
291.992190	1.50000000E+1	
292.480470	2.50000000E+1	
292.968750	2.70000000E+1	
293.45700	2.60000000E+1	
293.945310	2.40000000E+1	
294.433590	2.70000000E+1	
294.921880	3.30000000E+1	
295.410160	2.20000000E+1	
295.898440	2.20000000E+1	
296.386720	2.70000000E+1	
296.87500	3.00000000E+1	
297.363280	2.20000000E+1	
297.851560	2.10000000E+1	
298.339840	2.40000000E+1	
298.828130	2.10000000E+1	
299.316410	2.40000000E+1	
299.804690	2.30000000E+1	
300.29300	2.70000000E+1	
300.781250	1.70000000E+1	
301.269530	2.10000000E+1	
301.757810	2.10000000E+1	
302.246090	1.50000000E+1	
302.734380	2.60000000E+1	
303.222660	2.50000000E+1	
303.710940	1.60000000E+1	
304.199220	2.40000000E+1	
304.687500	3.20000000E+1	
305.175780	2.40000000E+1	
305.664060	1.70000000E+1	
306.152340	3.00000000E+1	
306.640630	2.00000000E+1	
307.128910	2.50000000E+1	
307.617190	2.00000000E+1	
308.105470	3.10000000E+1	
308.593750	2.60000000E+1	
309.08200	2.90000000E+1	
309.570310	2.40000000E+1	
310.058590	2.70000000E+1	
310.546880	2.10000000E+1	
311.035160	2.30000000E+1	
311.523440	2.60000000E+1	
312.011720	3.10000000E+1	
312.500	1.70000000E+1	
312.988280	2.40000000E+1	
313.476560	2.90000000E+1	
313.964840	3.00000000E+1	
314.453130	3.00000000E+1	
314.941410	2.50000000E+1	
315.429690	2.90000000E+1	
315.91800	1.50000000E+1	
316.406250	3.30000000E+1	
316.894530	3.00000000E+1	
317.382810	2.50000000E+1	
317.871090	2.10000000E+1	
318.359380	1.10000000E+1	
318.847660	2.20000000E+1	
319.335940	2.60000000E+1	
319.824220	2.20000000E+1	
320.312500	1.60000000E+1	
320.800780	2.60000000E+1	
321.289060	2.20000000E+1	
321.777340	3.40000000E+1	
322.265630	3.10000000E+1	
322.753910	2.60000000E+1	
323.242190	2.20000000E+1	
323.730470	2.60000000E+1	
324.218750	2.20000000E+1	
324.70700	2.60000000E+1	
325.195310	1.60000000E+1	
325.683590	2.50000000E+1	
326.171880	1.50000000E+1	
326.660160	2.90000000E+1	
327.148440	1.90000000E+1	
327.636720	2.60000000E+1	
328.12500	1.90000000E+1	
328.613280	1.90000000E+1	
329.101560	2.30000000E+1	
329.589840	2.80000000E+1	
330.078130	2.10000000E+1	
330.566410	3.20000000E+1	
331.054690	1.60000000E+1	
331.54300	2.50000000E+1	
332.031250	2.80000000E+1	
332.519530	2.00000000E+1	
333.007810	2.40000000E+1	
333.496090	2.80000000E+1	
333.984380	2.20000000E+1	
334.472660	2.20000000E+1	
334.960940	2.40000000E+1	
335.449220	1.90000000E+1	
335.937500	2.50000000E+1	
336.425780	2.20000000E+1	
336.914060	2.10000000E+1	
337.402340	2.10000000E+1	
337.890630	2.90000000E+1	
338.378910	1.30000000E+1	
338.867190	3.20000000E+1	
339.355470	1.90000000E+1	
339.843750	2.50000000E+1	
340.33200	3.10000000E+1	
340.820310	2.20000000E+1	
341.308590	2.30000000E+1	
341.796880	2.00000000E+1	
342.285160	2.20000000E+1	
342.773440	2.90000000E+1	
343.261720	2.50000000E+1	
343.7500	1.10000000E+1	
344.238280	2.00000000E+1	
344.726560	2.30000000E+1	
345.214840	2.40000000E+1	
345.703130	3.00000000E+1	
346.191410	1.80000000E+1	
346.679690	2.60000000E+1	
347.16800	2.40000000E+1	
347.656250	2.10000000E+1	
348.144530	2.80000000E+1	
348.632810	3.10000000E+1	
349.121090	2.30000000E+1	
349.609380	2.00000000E+1	
350.097660	2.20000000E+1	
350.585940	2.20000000E+1	
351.074220	2.60000000E+1	
351.562500	1.80000000E+1	
352.050780	2.50000000E+1	
352.539060	2.40000000E+1	
353.027340	2.20000000E+1	
353.515630	3.00000000E+1	
354.003910	3.00000000E+1	
354.492190	2.40000000E+1	
354.980470	2.70000000E+1	
355.468750	1.90000000E+1	
355.95700	2.00000000E+1	
356.445310	2.50000000E+1	
356.933590	2.10000000E+1	
357.421880	3.10000000E+1	
357.910160	2.20000000E+1	
358.398440	1.90000000E+1	
358.886720	2.60000000E+1	
359.37500	2.30000000E+1	
359.863280	1.90000000E+1	
360.351560	3.20000000E+1	
360.839840	1.90000000E+1	
361.328130	3.00000000E+1	
361.816410	2.30000000E+1	
362.304690	2.90000000E+1	
362.79300	2.30000000E+1	
363.281250	1.50000000E+1	
363.769530	1.60000000E+1	
364.257810	2.50000000E+1	
364.746090	2.00000000E+1	
365.234380	2.50000000E+1	
365.722660	2.00000000E+1	
366.210940	2.30000000E+1	
366.699220	2.50000000E+1	
367.187500	3.10000000E+1	
367.675780	3.30000000E+1	
368.164060	2.40000000E+1	
368.652340	2.00000000E+1	
369.140630	2.60000000E+1	
369.628910	2.50000000E+1	
370.117190	2.80000000E+1	
370.605470	2.10000000E+1	
371.093750	2.30000000E+1	
371.58200	2.50000000E+1	
372.070310	1.50000000E+1	
372.558590	1.60000000E+1	
373.046880	1.60000000E+1	
373.535160	2.50000000E+1	
374.023440	1.20000000E+1	
374.511720	2.10000000E+1	
375.00	3.10000000E+1	
375.488280	2.00000000E+1	
375.976560	2.30000000E+1	
376.464840	2.20000000E+1	
376.953130	2.10000000E+1	
377.441410	1.80000000E+1	
377.929690	2.40000000E+1	
378.41800	2.80000000E+1	
378.906250	2.50000000E+1	
379.394530	2.30000000E+1	
379.882810	2.10000000E+1	
380.371090	2.00000000E+1	
380.859380	2.10000000E+1	
381.347660	2.10000000E+1	
381.835940	2.00000000E+1	
382.324220	2.90000000E+1	
382.812500	2.50000000E+1	
383.300780	1.40000000E+1	
383.789060	2.30000000E+1	
384.277340	2.30000000E+1	
384.765630	2.50000000E+1	
385.253910	2.50000000E+1	
385.742190	3.10000000E+1	
386.230470	2.40000000E+1	
386.718750	2.40000000E+1	
387.20700	2.80000000E+1	
387.695310	1.50000000E+1	
388.183590	2.10000000E+1	
388.671880	2.20000000E+1	
389.160160	2.60000000E+1	
389.648440	2.10000000E+1	
390.136720	2.30000000E+1	
390.62500	1.70000000E+1	
391.113280	3.00000000E+1	
391.601560	1.50000000E+1	
392.089840	2.60000000E+1	
392.578130	2.20000000E+1	
393.066410	3.10000000E+1	
393.554690	1.50000000E+1	
394.04300	1.90000000E+1	
394.531250	2.40000000E+1	
395.019530	2.30000000E+1	
395.507810	1.70000000E+1	
395.996090	1.70000000E+1	
396.484380	2.30000000E+1	
396.972660	2.30000000E+1	
397.460940	2.00000000E+1	
397.949220	2.40000000E+1	
398.437500	2.30000000E+1	
398.925780	2.60000000E+1	
399.414060	1.20000000E+1	
399.902340	1.80000000E+1	
400.390630	2.00000000E+1	
400.878910	2.00000000E+1	
401.367190	2.30000000E+1	
401.855470	2.10000000E+1	
402.343750	1.80000000E+1	
402.83200	2.20000000E+1	
403.320310	1.50000000E+1	
403.808590	2.90000000E+1	
404.296880	2.70000000E+1	
404.785160	1.70000000E+1	
405.273440	2.40000000E+1	
405.761720	1.70000000E+1	
406.2500	2.40000000E+1	
406.738280	2.50000000E+1	
407.226560	1.90000000E+1	
407.714840	1.70000000E+1	
408.203130	1.40000000E+1	
408.691410	1.70000000E+1	
409.179690	2.40000000E+1	
409.66800	2.10000000E+1	
410.156250	2.10000000E+1	
410.644530	2.50000000E+1	
411.132810	2.30000000E+1	
411.621090	3.20000000E+1	
412.109380	2.60000000E+1	
412.597660	2.90000000E+1	
413.085940	2.60000000E+1	
413.574220	2.20000000E+1	
414.062500	1.60000000E+1	
414.550780	2.20000000E+1	
415.039060	1.80000000E+1	
415.527340	2.10000000E+1	
416.015630	2.20000000E+1	
416.503910	2.30000000E+1	
416.992190	2.50000000E+1	
417.480470	2.40000000E+1	
417.968750	1.90000000E+1	
418.45700	1.90000000E+1	
418.945310	2.10000000E+1	
419.433590	2.10000000E+1	
419.921880	2.30000000E+1	
420.410160	2.20000000E+1	
420.898440	2.30000000E+1	
421.386720	2.00000000E+1	
421.87500	3.10000000E+1	
422.363280	1.90000000E+1	
422.851560	2.10000000E+1	
423.339840	2.00000000E+1	
423.828130	3.00000000E+1	
424.316410	1.60000000E+1	
424.804690	2.40000000E+1	
425.29300	1.90000000E+1	
425.781250	2.00000000E+1	
426.269530	2.00000000E+1	
426.757810	2.30000000E+1	
427.246090	1.80000000E+1	
427.734380	2.70000000E+1	
428.222660	2.10000000E+1	
428.710940	2.90000000E+1	
429.199220	2.00000000E+1	
429.687500	2.20000000E+1	
430.175780	1.80000000E+1	
430.664060	2.30000000E+1	
431.152340	1.90000000E+1	
431.640630	1.50000000E+1	
432.128910	1.90000000E+1	
432.617190	2.00000000E+1	
433.105470	2.70000000E+1	
433.593750	2.00000000E+1	
434.08200	1.00000000E+1	
434.570310	3.10000000E+1	
435.058590	1.60000000E+1	
435.546880	2.40000000E+1	
436.035160	2.60000000E+1	
436.523440	1.90000000E+1	
437.011720	3.10000000E+1	
437.500	1.60000000E+1	
437.988280	2.00000000E+1	
438.476560	2.00000000E+1	
438.964840	1.90000000E+1	
439.453130	1.70000000E+1	
439.941410	1.70000000E+1	
440.429690	1.20000000E+1	
440.91800	2.20000000E+1	
441.406250	2.00000000E+1	
441.894530	2.30000000E+1	
442.382810	2.20000000E+1	
442.871090	1.90000000E+1	
443.359380	2.60000000E+1	
443.847660	2.50000000E+1	
444.335940	2.10000000E+1	
444.824220	2.80000000E+1	
445.312500	2.00000000E+1	
445.800780	2.50000000E+1	
446.289060	2.20000000E+1	
446.777340	2.00000000E+1	
447.265630	1.80000000E+1	
447.753910	2.60000000E+1	
448.242190	2.20000000E+1	
448.730470	2.90000000E+1	
449.218750	2.80000000E+1	
449.70700	2.50000000E+1	
450.195310	2.40000000E+1	
450.683590	2.50000000E+1	
451.171880	1.90000000E+1	
451.660160	2.60000000E+1	
452.148440	1.90000000E+1	
452.636720	1.90000000E+1	
453.12500	2.70000000E+1	
453.613280	2.20000000E+1	
454.101560	1.30000000E+1	
454.589840	2.60000000E+1	
455.078130	3.00000000E+1	
455.566410	2.40000000E+1	
456.054690	1.60000000E+1	
456.54300	1.60000000E+1	
457.031250	1.70000000E+1	
457.519530	2.20000000E+1	
458.007810	1.80000000E+1	
458.496090	3.50000000E+1	
458.984380	1.30000000E+1	
459.472660	1.90000000E+1	
459.960940	1.60000000E+1	
460.449220	1.90000000E+1	
460.937500	2.10000000E+1	
461.425780	2.30000000E+1	
461.914060	2.90000000E+1	
462.402340	2.40000000E+1	
462.890630	1.90000000E+1	
463.378910	1.70000000E+1	
463.867190	2.90000000E+1	
464.355470	3.20000000E+1	
464.843750	2.70000000E+1	
465.33200	1.90000000E+1	
465.820310	2.40000000E+1	
466.308590	2.20000000E+1	
466.796880	2.50000000E+1	
467.285160	2.00000000E+1	
467.773440	2.00000000E+1	
468.261720	8.00000000E+0	
468.7500	2.30000000E+1	
469.238280	2.50000000E+1	
469.726560	2.00000000E+1	
470.214840	2.20000000E+1	
470.703130	3.50000000E+1	
471.191410	1.70000000E+1	
471.679690	1.90000000E+1	
472.16800	2.10000000E+1	
472.656250	2.40000000E+1	
473.144530	2.00000000E+1	
473.632810	2.20000000E+1	
474.121090	2.10000000E+1	
474.609380	2.20000000E+1	
475.097660	1.90000000E+1	
475.585940	2.50000000E+1	
476.074220	2.00000000E+1	
476.562500	2.10000000E+1	
477.050780	2.30000000E+1	
477.539060	2.00000000E+1	
478.027340	2.50000000E+1	
478.515630	2.40000000E+1	
479.003910	2.00000000E+1	
479.492190	8.00000000E+0	
479.980470	1.90000000E+1	
480.468750	3.40000000E+1	
480.95700	2.10000000E+1	
481.445310	2.60000000E+1	
481.933590	2.30000000E+1	
482.421880	1.90000000E+1	
482.910160	2.40000000E+1	
483.398440	1.30000000E+1	
483.886720	2.70000000E+1	
484.37500	1.60000000E+1	
484.863280	2.30000000E+1	
485.351560	1.80000000E+1	
485.839840	1.70000000E+1	
486.328130	1.60000000E+1	
486.816410	1.20000000E+1	
487.304690	2.20000000E+1	
487.79300	2.40000000E+1	
488.281250	2.40000000E+1	
488.769530	3.20000000E+1	
489.257810	2.60000000E+1	
489.746090	1.70000000E+1	
490.234380	2.20000000E+1	
490.722660	1.50000000E+1	
491.210940	3.20000000E+1	
491.699220	1.60000000E+1	
492.187500	2.20000000E+1	
492.675780	2.00000000E+1	
493.164060	2.00000000E+1	
493.652340	3.00000000E+1	
494.140630	1.90000000E+1	
494.628910	2.30000000E+1	
495.117190	2.80000000E+1	
495.605470	2.40000000E+1	
496.093750	1.50000000E+1	
496.58200	1.70000000E+1	
497.070310	3.10000000E+1	
497.558590	1.70000000E+1	
498.046880	1.40000000E+1	
498.535160	1.60000000E+1	
499.023440	2.50000000E+1	
499.511720	1.80000000E+1	
500.00	2.40000000E+1	
500.488280	1.80000000E+1	
500.976560	2.20000000E+1	
501.464840	2.20000000E+1	
501.953130	2.10000000E+1	
502.441410	2.40000000E+1	
502.929690	2.40000000E+1	
503.41800	2.10000000E+1	
503.906250	2.50000000E+1	
504.394530	2.70000000E+1	
504.882810	2.70000000E+1	
505.371090	2.00000000E+1	
505.859380	2.10000000E+1	
506.347660	2.20000000E+1	
506.835940	2.40000000E+1	
507.324220	1.30000000E+1	
507.812500	1.90000000E+1	
508.300780	1.60000000E+1	
508.789060	2.30000000E+1	
509.277340	2.20000000E+1	
509.765630	2.10000000E+1	
510.253910	1.70000000E+1	
510.742190	2.20000000E+1	
511.230470	1.20000000E+1	
511.718750	3.30000000E+1	
512.20700	1.90000000E+1	
512.695310	2.10000000E+1	
513.183590	1.00000000E+1	
513.671880	3.00000000E+1	
514.160160	2.00000000E+1	
514.648440	3.00000000E+1	
515.136720	1.90000000E+1	
515.62500	1.70000000E+1	
516.113280	2.10000000E+1	
516.601560	1.70000000E+1	
517.089840	2.10000000E+1	
517.578130	1.70000000E+1	
518.066410	2.00000000E+1	
518.554690	3.10000000E+1	
519.04300	2.00000000E+1	
519.531250	1.80000000E+1	
520.019530	2.70000000E+1	
520.507810	1.50000000E+1	
520.996090	2.30000000E+1	
521.484380	2.50000000E+1	
521.972660	2.70000000E+1	
522.460940	2.70000000E+1	
522.949220	2.00000000E+1	
523.437500	1.70000000E+1	
523.925780	2.20000000E+1	
524.414060	2.00000000E+1	
524.902340	2.10000000E+1	
525.390630	1.90000000E+1	
525.878910	1.70000000E+1	
526.367190	2.20000000E+1	
526.855470	2.10000000E+1	
527.343750	1.80000000E+1	
527.83200	2.10000000E+1	
528.320310	1.60000000E+1	
528.808590	1.80000000E+1	
529.296880	1.90000000E+1	
529.785160	2.80000000E+1	
530.273440	2.30000000E+1	
530.761720	2.00000000E+1	
531.2500	2.00000000E+1	
531.738280	3.50000000E+1	
532.226560	2.10000000E+1	
532.714840	2.10000000E+1	
533.203130	2.60000000E+1	
533.691410	2.10000000E+1	
534.179690	1.10000000E+1	
534.66800	1.60000000E+1	
535.156250	2.10000000E+1	
535.644530	1.90000000E+1	
536.132810	1.90000000E+1	
536.621090	1.20000000E+1	
537.109380	2.70000000E+1	
537.597660	2.70000000E+1	
538.085940	1.90000000E+1	
538.574220	2.10000000E+1	
539.062500	1.30000000E+1	
539.550780	2.40000000E+1	
540.039060	1.70000000E+1	
540.527340	2.40000000E+1	
541.015630	1.90000000E+1	
541.503910	1.70000000E+1	
541.992190	2.40000000E+1	
542.480470	1.70000000E+1	
542.968750	2.60000000E+1	
543.45700	2.30000000E+1	
543.945310	2.10000000E+1	
544.433590	2.20000000E+1	
544.921880	2.10000000E+1	
545.410160	8.00000000E+0	
545.898440	2.30000000E+1	
546.386720	2.30000000E+1	
546.87500	2.50000000E+1	
547.363280	1.70000000E+1	
547.851560	2.60000000E+1	
548.339840	2.30000000E+1	
548.828130	2.30000000E+1	
549.316410	1.90000000E+1	
549.804690	1.50000000E+1	
550.29300	2.40000000E+1	
550.781250	2.20000000E+1	
551.269530	2.20000000E+1	
551.757810	1.90000000E+1	
552.246090	2.20000000E+1	
552.734380	1.90000000E+1	
553.222660	2.30000000E+1	
553.710940	2.00000000E+1	
554.199220	2.10000000E+1	
554.687500	2.20000000E+1	
555.175780	1.90000000E+1	
555.664060	2.30000000E+1	
556.152340	2.50000000E+1	
556.640630	2.30000000E+1	
557.128910	3.10000000E+1	
557.617190	1.90000000E+1	
558.105470	1.50000000E+1	
558.593750	2.00000000E+1	
559.08200	1.40000000E+1	
559.570310	3.20000000E+1	
560.058590	2.30000000E+1	
560.546880	2.60000000E+1	
561.035160	2.60000000E+1	
561.523440	2.00000000E+1	
562.011720	1.50000000E+1	
562.500	3.00000000E+1	
562.988280	1.80000000E+1	
563.476560	2.30000000E+1	
563.964840	1.70000000E+1	
564.453130	2.40000000E+1	
564.941410	2.10000000E+1	
565.429690	1.40000000E+1	
565.91800	2.00000000E+1	
566.406250	1.30000000E+1	
566.894530	2.70000000E+1	
567.382810	1.30000000E+1	
567.871090	2.30000000E+1	
568.359380	2.00000000E+1	
568.847660	1.90000000E+1	
569.335940	1.90000000E+1	
569.824220	1.60000000E+1	
570.312500	2.40000000E+1	
570.800780	1.60000000E+1	
571.289060	1.70000000E+1	
571.777340	1.60000000E+1	
572.265630	1.80000000E+1	
572.753910	1.80000000E+1	
573.242190	2.10000000E+1	
573.730470	1.60000000E+1	
574.218750	1.50000000E+1	
574.70700	1.90000000E+1	
575.195310	1.60000000E+1	
575.683590	1.00000000E+1	
576.171880	1.50000000E+1	
576.660160	2.50000000E+1	
577.148440	1.70000000E+1	
577.636720	2.10000000E+1	
578.12500	2.90000000E+1	
578.613280	2.10000000E+1	
579.101560	2.50000000E+1	
579.589840	1.40000000E+1	
580.078130	2.20000000E+1	
580.566410	2.20000000E+1	
581.054690	2.60000000E+1	
581.54300	2.50000000E+1	
582.031250	2.00000000E+1	
582.519530	2.30000000E+1	
583.007810	1.70000000E+1	
583.496090	1.40000000E+1	
583.984380	2.30000000E+1	
584.472660	1.80000000E+1	
584.960940	2.00000000E+1	
585.449220	2.20000000E+1	
585.937500	2.70000000E+1	
586.425780	1.50000000E+1	
586.914060	2.80000000E+1	
587.402340	2.90000000E+1	
587.890630	1.80000000E+1	
588.378910	1.70000000E+1	
588.867190	1.80000000E+1	
589.355470	2.40000000E+1	
589.843750	1.60000000E+1	
590.33200	1.50000000E+1	
590.820310	1.70000000E+1	
591.308590	2.00000000E+1	
591.796880	2.70000000E+1	
592.285160	2.40000000E+1	
592.773440	1.90000000E+1	
593.261720	2.00000000E+1	
593.7500	1.60000000E+1	
594.238280	2.20000000E+1	
594.726560	2.20000000E+1	
595.214840	1.60000000E+1	
595.703130	2.30000000E+1	
596.191410	1.50000000E+1	
596.679690	2.20000000E+1	
597.16800	2.30000000E+1	
597.656250	2.50000000E+1	
598.144530	1.50000000E+1	
598.632810	1.80000000E+1	
599.121090	2.30000000E+1	
599.609380	2.20000000E+1	
600.097660	2.00000000E+1	
600.585940	2.20000000E+1	
601.074220	1.60000000E+1	
601.562500	1.20000000E+1	
602.050780	1.80000000E+1	
602.539060	2.00000000E+1	
603.027340	2.60000000E+1	
603.515630	2.00000000E+1	
604.003910	1.50000000E+1	
604.492190	1.80000000E+1	
604.980470	2.20000000E+1	
605.468750	1.40000000E+1	
605.95700	1.70000000E+1	
606.445310	1.80000000E+1	
606.933590	1.50000000E+1	
607.421880	2.00000000E+1	
607.910160	2.30000000E+1	
608.398440	1.30000000E+1	
608.886720	1.40000000E+1	
609.37500	2.00000000E+1	
609.863280	2.40000000E+1	
610.351560	2.40000000E+1	
610.839840	2.20000000E+1	
611.328130	1.60000000E+1	
611.816410	1.40000000E+1	
612.304690	2.40000000E+1	
612.79300	1.90000000E+1	
613.281250	1.90000000E+1	
613.769530	1.70000000E+1	
614.257810	2.70000000E+1	
614.746090	2.30000000E+1	
615.234380	1.30000000E+1	
615.722660	2.10000000E+1	
616.210940	2.10000000E+1	
616.699220	2.50000000E+1	
617.187500	2.00000000E+1	
617.675780	1.90000000E+1	
618.164060	3.00000000E+1	
618.652340	2.70000000E+1	
619.140630	1.60000000E+1	
619.628910	2.40000000E+1	
620.117190	3.20000000E+1	
620.605470	2.30000000E+1	
621.093750	1.10000000E+1	
621.58200	1.60000000E+1	
622.070310	2.40000000E+1	
622.558590	2.20000000E+1	
623.046880	2.70000000E+1	
623.535160	2.40000000E+1	
624.023440	2.30000000E+1	
624.511720	1.80000000E+1	
625.00	1.10000000E+1	
625.488280	2.00000000E+1	
625.976560	1.80000000E+1	
626.464840	2.00000000E+1	
626.953130	2.40000000E+1	
627.441410	2.20000000E+1	
627.929690	2.60000000E+1	
628.41800	2.30000000E+1	
628.906250	3.00000000E+1	
629.394530	2.10000000E+1	
629.882810	2.30000000E+1	
630.371090	2.70000000E+1	
630.859380	1.70000000E+1	
631.347660	2.10000000E+1	
631.835940	1.60000000E+1	
632.324220	1.90000000E+1	
632.812500	1.70000000E+1	
633.300780	1.40000000E+1	
633.789060	2.00000000E+1	
634.277340	2.00000000E+1	
634.765630	2.40000000E+1	
635.253910	2.00000000E+1	
635.742190	1.70000000E+1	
636.230470	3.10000000E+1	
636.718750	2.20000000E+1	
637.20700	2.10000000E+1	
637.695310	1.50000000E+1	
638.183590	3.50000000E+1	
638.671880	2.40000000E+1	
639.160160	1.30000000E+1	
639.648440	2.20000000E+1	
640.136720	1.90000000E+1	
640.62500	1.60000000E+1	
641.113280	2.10000000E+1	
641.601560	1.90000000E+1	
642.089840	1.60000000E+1	
642.578130	1.80000000E+1	
643.066410	2.20000000E+1	
643.554690	2.30000000E+1	
644.04300	1.90000000E+1	
644.531250	2.30000000E+1	
645.019530	2.10000000E+1	
645.507810	2.10000000E+1	
645.996090	2.40000000E+1	
646.484380	2.20000000E+1	
646.972660	2.00000000E+1	
647.460940	1.50000000E+1	
647.949220	2.70000000E+1	
648.437500	1.70000000E+1	
648.925780	2.10000000E+1	
649.414060	2.10000000E+1	
649.902340	2.00000000E+1	
650.390630	2.50000000E+1	
650.878910	2.60000000E+1	
651.367190	1.80000000E+1	
651.855470	2.90000000E+1	
652.343750	2.90000000E+1	
652.83200	2.50000000E+1	
653.320310	2.10000000E+1	
653.808590	3.20000000E+1	
654.296880	1.60000000E+1	
654.785160	1.40000000E+1	
655.273440	1.20000000E+1	
655.761720	2.40000000E+1	
656.2500	1.70000000E+1	
656.738280	3.10000000E+1	
657.226560	1.70000000E+1	
657.714840	2.40000000E+1	
658.203130	1.60000000E+1	
658.691410	2.10000000E+1	
659.179690	1.50000000E+1	
659.66800	2.10000000E+1	
660.156250	1.80000000E+1	
660.644530	2.40000000E+1	
661.132810	2.10000000E+1	
661.621090	2.90000000E+1	
662.109380	2.50000000E+1	
662.597660	2.00000000E+1	
663.085940	3.00000000E+1	
663.574220	2.30000000E+1	
664.062500	2.30000000E+1	
664.550780	1.10000000E+1	
665.039060	2.40000000E+1	
665.527340	2.50000000E+1	
666.015630	2.50000000E+1	
666.503910	1.90000000E+1	
666.992190	1.60000000E+1	
667.480470	2.40000000E+1	
667.968750	1.30000000E+1	
668.45700	1.80000000E+1	
668.945310	1.90000000E+1	
669.433590	2.10000000E+1	
669.921880	2.70000000E+1	
670.410160	2.00000000E+1	
670.898440	2.20000000E+1	
671.386720	2.00000000E+1	
671.87500	2.80000000E+1	
672.363280	2.20000000E+1	
672.851560	2.30000000E+1	
673.339840	1.70000000E+1	
673.828130	1.80000000E+1	
674.316410	1.60000000E+1	
674.804690	2.20000000E+1	
675.29300	2.60000000E+1	
675.781250	2.30000000E+1	
676.269530	2.10000000E+1	
676.757810	2.70000000E+1	
677.246090	2.40000000E+1	
677.734380	2.70000000E+1	
678.222660	2.00000000E+1	
678.710940	1.20000000E+1	
679.199220	2.00000000E+1	
679.687500	1.80000000E+1	
680.175780	2.00000000E+1	
680.664060	1.70000000E+1	
681.152340	2.20000000E+1	
681.640630	2.20000000E+1	
682.128910	1.80000000E+1	
682.617190	2.50000000E+1	
683.105470	1.60000000E+1	
683.593750	2.30000000E+1	
684.08200	1.40000000E+1	
684.570310	1.80000000E+1	
685.058590	2.50000000E+1	
685.546880	2.90000000E+1	
686.035160	2.80000000E+1	
686.523440	2.00000000E+1	
687.011720	1.20000000E+1	
687.500	1.30000000E+1	
687.988280	1.90000000E+1	
688.476560	1.50000000E+1	
688.964840	2.00000000E+1	
689.453130	2.20000000E+1	
689.941410	1.70000000E+1	
690.429690	1.90000000E+1	
690.91800	3.30000000E+1	
691.406250	1.50000000E+1	
691.894530	1.70000000E+1	
692.382810	2.10000000E+1	
692.871090	1.40000000E+1	
693.359380	1.90000000E+1	
693.847660	1.40000000E+1	
694.335940	2.10000000E+1	
694.824220	1.60000000E+1	
695.312500	2.40000000E+1	
695.800780	1.60000000E+1	
696.289060	2.50000000E+1	
696.777340	2.50000000E+1	
697.265630	2.30000000E+1	
697.753910	2.30000000E+1	
698.242190	2.30000000E+1	
698.730470	2.10000000E+1	
699.218750	1.70000000E+1	
699.70700	1.80000000E+1	
700.195310	2.30000000E+1	
700.683590	1.90000000E+1	
701.171880	2.30000000E+1	
701.660160	2.30000000E+1	
702.148440	1.80000000E+1	
702.636720	1.60000000E+1	
703.12500	1.60000000E+1	
703.613280	1.50000000E+1	
704.101560	3.40000000E+1	
704.589840	1.90000000E+1	
705.078130	2.00000000E+1	
705.566410	1.70000000E+1	
706.054690	1.60000000E+1	
706.54300	2.30000000E+1	
707.031250	2.00000000E+1	
707.519530	2.30000000E+1	
708.007810	1.90000000E+1	
708.496090	1.80000000E+1	
708.984380	1.60000000E+1	
709.472660	2.10000000E+1	
709.960940	2.20000000E+1	
710.449220	1.50000000E+1	
710.937500	1.20000000E+1	
711.425780	1.90000000E+1	
711.914060	1.70000000E+1	
712.402340	2.00000000E+1	
712.890630	2.50000000E+1	
713.378910	1.50000000E+1	
713.867190	2.40000000E+1	
714.355470	2.20000000E+1	
714.843750	2.50000000E+1	
715.33200	1.30000000E+1	
715.820310	2.20000000E+1	
716.308590	2.00000000E+1	
716.796880	2.40000000E+1	
717.285160	2.20000000E+1	
717.773440	1.90000000E+1	
718.261720	2.20000000E+1	
718.7500	1.70000000E+1	
719.238280	2.00000000E+1	
719.726560	1.60000000E+1	
720.214840	2.90000000E+1	
720.703130	2.30000000E+1	
721.191410	2.40000000E+1	
721.679690	1.40000000E+1	
722.16800	1.80000000E+1	
722.656250	1.60000000E+1	
723.144530	2.40000000E+1	
723.632810	1.40000000E+1	
724.121090	2.00000000E+1	
724.609380	2.70000000E+1	
725.097660	1.30000000E+1	
725.585940	1.80000000E+1	
726.074220	2.10000000E+1	
726.562500	2.00000000E+1	
727.050780	2.30000000E+1	
727.539060	1.20000000E+1	
728.027340	1.40000000E+1	
728.515630	1.80000000E+1	
729.003910	1.70000000E+1	
729.492190	2.60000000E+1	
729.980470	1.90000000E+1	
730.468750	1.90000000E+1	
730.95700	1.70000000E+1	
731.445310	1.80000000E+1	
731.933590	2.00000000E+1	
732.421880	1.60000000E+1	
732.910160	2.90000000E+1	
733.398440	2.10000000E+1	
733.886720	2.00000000E+1	
734.37500	1.60000000E+1	
734.863280	1.80000000E+1	
735.351560	1.50000000E+1	
735.839840	2.40000000E+1	
736.328130	2.00000000E+1	
736.816410	1.60000000E+1	
737.304690	1.70000000E+1	
737.79300	2.70000000E+1	
738.281250	2.50000000E+1	
738.769530	2.70000000E+1	
739.257810	2.30000000E+1	
739.746090	1.70000000E+1	
740.234380	1.70000000E+1	
740.722660	3.40000000E+1	
741.210940	2.40000000E+1	
741.699220	2.20000000E+1	
742.187500	1.40000000E+1	
742.675780	1.30000000E+1	
743.164060	2.00000000E+1	
743.652340	1.40000000E+1	
744.140630	2.50000000E+1	
744.628910	1.60000000E+1	
745.117190	1.30000000E+1	
745.605470	1.70000000E+1	
746.093750	1.90000000E+1	
746.58200	2.10000000E+1	
747.070310	2.40000000E+1	
747.558590	1.40000000E+1	
748.046880	2.60000000E+1	
748.535160	2.30000000E+1	
749.023440	2.10000000E+1	
749.511720	1.30000000E+1	
750.00	1.40000000E+1	
750.488280	1.80000000E+1	
750.976560	1.60000000E+1	
751.464840	1.40000000E+1	
751.953130	2.50000000E+1	
752.441410	2.00000000E+1	
752.929690	2.00000000E+1	
753.41800	2.40000000E+1	
753.906250	1.80000000E+1	
754.394530	2.00000000E+1	
754.882810	2.10000000E+1	
755.371090	1.60000000E+1	
755.859380	1.70000000E+1	
756.347660	1.20000000E+1	
756.835940	2.60000000E+1	
757.324220	1.20000000E+1	
757.812500	1.50000000E+1	
758.300780	1.00000000E+1	
758.789060	2.40000000E+1	
759.277340	1.80000000E+1	
759.765630	2.30000000E+1	
760.253910	1.90000000E+1	
760.742190	2.70000000E+1	
761.230470	1.80000000E+1	
761.718750	1.70000000E+1	
762.20700	1.50000000E+1	
762.695310	1.40000000E+1	
763.183590	2.20000000E+1	
763.671880	1.80000000E+1	
764.160160	1.80000000E+1	
764.648440	2.20000000E+1	
765.136720	2.60000000E+1	
765.62500	2.10000000E+1	
766.113280	2.00000000E+1	
766.601560	2.00000000E+1	
767.089840	2.10000000E+1	
767.578130	1.40000000E+1	
768.066410	2.40000000E+1	
768.554690	1.60000000E+1	
769.04300	2.00000000E+1	
769.531250	2.10000000E+1	
770.019530	1.10000000E+1	
770.507810	1.20000000E+1	
770.996090	2.00000000E+1	
771.484380	2.70000000E+1	
771.972660	2.30000000E+1	
772.460940	2.10000000E+1	
772.949220	2.10000000E+1	
773.437500	1.60000000E+1	
773.925780	1.80000000E+1	
774.414060	2.70000000E+1	
774.902340	1.80000000E+1	
775.390630	1.40000000E+1	
775.878910	2.50000000E+1	
776.367190	2.00000000E+1	
776.855470	2.60000000E+1	
777.343750	1.70000000E+1	
777.83200	1.10000000E+1	
778.320310	1.70000000E+1	
778.808590	1.80000000E+1	
779.296880	2.10000000E+1	
779.785160	2.10000000E+1	
780.273440	1.90000000E+1	
780.761720	1.80000000E+1	
781.2500	1.20000000E+1	
781.738280	1.80000000E+1	
782.226560	1.70000000E+1	
782.714840	1.60000000E+1	
783.203130	1.70000000E+1	
783.691410	1.60000000E+1	
784.179690	1.80000000E+1	
784.66800	1.90000000E+1	
785.156250	1.70000000E+1	
785.644530	2.70000000E+1	
786.132810	2.50000000E+1	
786.621090	1.70000000E+1	
787.109380	2.50000000E+1	
787.597660	1.70000000E+1	
788.085940	2.00000000E+1	
788.574220	1.10000000E+1	
789.062500	1.40000000E+1	
789.550780	2.00000000E+1	
790.039060	2.50000000E+1	
790.527340	1.80000000E+1	
791.015630	2.00000000E+1	
791.503910	2.00000000E+1	
791.992190	2.20000000E+1	
792.480470	1.50000000E+1	
792.968750	2.00000000E+1	
793.45700	2.50000000E+1	
793.945310	1.40000000E+1	
794.433590	1.00000000E+1	
794.921880	2.00000000E+1	
795.410160	1.10000000E+1	
795.898440	2.50000000E+1	
796.386720	2.10000000E+1	
796.87500	1.50000000E+1	
797.363280	1.60000000E+1	
797.851560	1.90000000E+1	
798.339840	1.20000000E+1	
798.828130	1.90000000E+1	
799.316410	2.00000000E+1	
799.804690	1.20000000E+1	
800.29300	1.70000000E+1	
800.781250	2.20000000E+1	
801.269530	2.20000000E+1	
801.757810	2.10000000E+1	
802.246090	1.80000000E+1	
802.734380	1.50000000E+1	
803.222660	1.70000000E+1	
803.710940	2.30000000E+1	
804.199220	2.40000000E+1	
804.687500	2.50000000E+1	
805.175780	1.30000000E+1	
805.664060	2.00000000E+1	
806.152340	2.30000000E+1	
806.640630	1.50000000E+1	
807.128910	1.80000000E+1	
807.617190	2.70000000E+1	
808.105470	1.80000000E+1	
808.593750	1.50000000E+1	
809.08200	2.60000000E+1	
809.570310	1.90000000E+1	
810.058590	1.70000000E+1	
810.546880	2.00000000E+1	
811.035160	2.30000000E+1	
811.523440	1.10000000E+1	
812.011720	1.70000000E+1	
812.500	1.90000000E+1	
812.988280	1.40000000E+1	
813.476560	1.70000000E+1	
813.964840	2.10000000E+1	
814.453130	1.80000000E+1	
814.941410	1.90000000E+1	
815.429690	1.30000000E+1	
815.91800	1.80000000E+1	
816.406250	1.30000000E+1	
816.894530	1.20000000E+1	
817.382810	2.20000000E+1	
817.871090	2.10000000E+1	
818.359380	2.80000000E+1	
818.847660	1.90000000E+1	
819.335940	2.00000000E+1	
819.824220	1.40000000E+1	
820.312500	2.20000000E+1	
820.800780	2.20000000E+1	
821.289060	1.80000000E+1	
821.777340	3.20000000E+1	
822.265630	1.10000000E+1	
822.753910	1.60000000E+1	
823.242190	2.30000000E+1	
823.730470	2.30000000E+1	
824.218750	2.40000000E+1	
824.70700	2.20000000E+1	
825.195310	1.60000000E+1	
825.683590	1.80000000E+1	
826.171880	1.80000000E+1	
826.660160	1.30000000E+1	
827.148440	2.00000000E+1	
827.636720	2.60000000E+1	
828.12500	2.00000000E+1	
828.613280	1.90000000E+1	
829.101560	3.20000000E+1	
829.589840	1.90000000E+1	
830.078130	1.60000000E+1	
830.566410	1.60000000E+1	
831.054690	1.70000000E+1	
831.54300	2.00000000E+1	
832.031250	2.10000000E+1	
832.519530	1.20000000E+1	
833.007810	2.40000000E+1	
833.496090	2.40000000E+1	
833.984380	2.60000000E+1	
834.472660	1.80000000E+1	
834.960940	2.10000000E+1	
835.449220	2.50000000E+1	
835.937500	1.90000000E+1	
836.425780	1.40000000E+1	
836.914060	2.40000000E+1	
837.402340	1.50000000E+1	
837.890630	2.00000000E+1	
838.378910	1.80000000E+1	
838.867190	2.00000000E+1	
839.355470	2.20000000E+1	
839.843750	2.50000000E+1	
840.33200	1.80000000E+1	
840.820310	1.80000000E+1	
841.308590	1.80000000E+1	
841.796880	1.30000000E+1	
842.285160	1.50000000E+1	
842.773440	1.50000000E+1	
843.261720	2.20000000E+1	
843.7500	1.30000000E+1	
844.238280	1.80000000E+1	
844.726560	2.10000000E+1	
845.214840	2.20000000E+1	
845.703130	2.10000000E+1	
846.191410	1.40000000E+1	
846.679690	1.30000000E+1	
847.16800	1.70000000E+1	
847.656250	2.00000000E+1	
848.144530	1.50000000E+1	
848.632810	1.70000000E+1	
849.121090	2.20000000E+1	
849.609380	2.10000000E+1	
850.097660	1.50000000E+1	
850.585940	1.70000000E+1	
851.074220	1.80000000E+1	
851.562500	1.80000000E+1	
852.050780	1.70000000E+1	
852.539060	2.40000000E+1	
853.027340	2.00000000E+1	
853.515630	1.30000000E+1	
854.003910	2.70000000E+1	
854.492190	1.80000000E+1	
854.980470	2.40000000E+1	
855.468750	1.70000000E+1	
855.95700	2.10000000E+1	
856.445310	1.60000000E+1	
856.933590	2.40000000E+1	
857.421880	2.00000000E+1	
857.910160	2.40000000E+1	
858.398440	1.30000000E+1	
858.886720	2.40000000E+1	
859.37500	2.80000000E+1	
859.863280	1.90000000E+1	
860.351560	2.40000000E+1	
860.839840	2.20000000E+1	
861.328130	1.60000000E+1	
861.816410	1.90000000E+1	
862.304690	1.70000000E+1	
862.79300	2.60000000E+1	
863.281250	1.40000000E+1	
863.769530	1.70000000E+1	
864.257810	1.40000000E+1	
864.746090	2.10000000E+1	
865.234380	1.50000000E+1	
865.722660	1.30000000E+1	
866.210940	1.40000000E+1	
866.699220	1.40000000E+1	
867.187500	1.60000000E+1	
867.675780	1.60000000E+1	
868.164060	2.00000000E+1	
868.652340	2.10000000E+1	
869.140630	1.80000000E+1	
869.628910	2.00000000E+1	
870.117190	2.60000000E+1	
870.605470	2.00000000E+1	
871.093750	1.80000000E+1	
871.58200	1.90000000E+1	
872.070310	1.90000000E+1	
872.558590	1.20000000E+1	
873.046880	2.40000000E+1	
873.535160	1.70000000E+1	
874.023440	1.90000000E+1	
874.511720	2.10000000E+1	
875.00	1.40000000E+1	
875.488280	1.10000000E+1	
875.976560	2.20000000E+1	
876.464840	1.50000000E+1	
876.953130	1.40000000E+1	
877.441410	1.20000000E+1	
877.929690	1.90000000E+1	
878.41800	2.10000000E+1	
878.906250	2.20000000E+1	
879.394530	2.30000000E+1	
879.882810	1.90000000E+1	
880.371090	2.10000000E+1	
880.859380	2.10000000E+1	
881.347660	1.70000000E+1	
881.835940	1.60000000E+1	
882.324220	1.70000000E+1	
882.812500	1.60000000E+1	
883.300780	1.30000000E+1	
883.789060	1.60000000E+1	
884.277340	7.00000000E+0	
884.765630	2.20000000E+1	
885.253910	1.70000000E+1	
885.742190	3.20000000E+1	
886.230470	2.10000000E+1	
886.718750	1.50000000E+1	
887.20700	2.00000000E+1	
887.695310	2.50000000E+1	
888.183590	1.40000000E+1	
888.671880	1.50000000E+1	
889.160160	1.90000000E+1	
889.648440	1.30000000E+1	
890.136720	1.60000000E+1	
890.62500	1.90000000E+1	
891.113280	2.00000000E+1	
891.601560	2.60000000E+1	
892.089840	1.50000000E+1	
892.578130	1.40000000E+1	
893.066410	2.00000000E+1	
893.554690	2.20000000E+1	
894.04300	1.90000000E+1	
894.531250	2.50000000E+1	
895.019530	1.60000000E+1	
895.507810	1.90000000E+1	
895.996090	2.70000000E+1	
896.484380	2.40000000E+1	
896.972660	2.30000000E+1	
897.460940	1.50000000E+1	
897.949220	2.40000000E+1	
898.437500	1.50000000E+1	
898.925780	1.70000000E+1	
899.414060	2.20000000E+1	
899.902340	1.60000000E+1	
900.390630	1.50000000E+1	
900.878910	1.90000000E+1	
901.367190	2.00000000E+1	
901.855470	1.50000000E+1	
902.343750	2.10000000E+1	
902.83200	2.30000000E+1	
903.320310	2.40000000E+1	
903.808590	1.40000000E+1	
904.296880	1.40000000E+1	
904.785160	1.70000000E+1	
905.273440	1.30000000E+1	
905.761720	1.40000000E+1	
906.2500	2.00000000E+1	
906.738280	1.40000000E+1	
907.226560	1.90000000E+1	
907.714840	1.50000000E+1	
908.203130	2.20000000E+1	
908.691410	1.40000000E+1	
909.179690	1.30000000E+1	
909.66800	1.70000000E+1	
910.156250	1.60000000E+1	
910.644530	1.30000000E+1	
911.132810	1.80000000E+1	
911.621090	1.80000000E+1	
912.109380	1.80000000E+1	
912.597660	2.00000000E+1	
913.085940	1.20000000E+1	
913.574220	1.90000000E+1	
914.062500	1.90000000E+1	
914.550780	1.40000000E+1	
915.039060	2.10000000E+1	
915.527340	1.40000000E+1	
916.015630	2.10000000E+1	
916.503910	1.90000000E+1	
916.992190	1.60000000E+1	
917.480470	2.10000000E+1	
917.968750	1.60000000E+1	
918.45700	1.30000000E+1	
918.945310	1.90000000E+1	
919.433590	2.10000000E+1	
919.921880	2.40000000E+1	
920.410160	1.90000000E+1	
920.898440	1.60000000E+1	
921.386720	1.80000000E+1	
921.87500	1.50000000E+1	
922.363280	1.90000000E+1	
922.851560	1.70000000E+1	
923.339840	1.90000000E+1	
923.828130	1.60000000E+1	
924.316410	1.90000000E+1	
924.804690	2.40000000E+1	
925.29300	2.50000000E+1	
925.781250	1.60000000E+1	
926.269530	1.60000000E+1	
926.757810	1.70000000E+1	
927.246090	1.70000000E+1	
927.734380	2.30000000E+1	
928.222660	1.20000000E+1	
928.710940	2.20000000E+1	
929.199220	1.80000000E+1	
929.687500	1.80000000E+1	
930.175780	1.40000000E+1	
930.664060	1.40000000E+1	
931.152340	2.10000000E+1	
931.640630	1.50000000E+1	
932.128910	2.30000000E+1	
932.617190	1.50000000E+1	
933.105470	2.00000000E+1	
933.593750	1.80000000E+1	
934.08200	1.50000000E+1	
934.570310	1.80000000E+1	
935.058590	2.20000000E+1	
935.546880	1.60000000E+1	
936.035160	1.60000000E+1	
936.523440	1.20000000E+1	
937.011720	1.50000000E+1	
937.500	1.20000000E+1	
937.988280	2.80000000E+1	
938.476560	1.60000000E+1	
938.964840	2.10000000E+1	
939.453130	1.80000000E+1	
939.941410	2.10000000E+1	
940.429690	1.70000000E+1	
940.91800	1.50000000E+1	
941.406250	1.70000000E+1	
941.894530	2.00000000E+1	
942.382810	1.90000000E+1	
942.871090	1.90000000E+1	
943.359380	2.20000000E+1	
943.847660	1.30000000E+1	
944.335940	1.80000000E+1	
944.824220	1.00000000E+1	
945.312500	1.50000000E+1	
945.800780	2.50000000E+1	
946.289060	1.50000000E+1	
946.777340	2.10000000E+1	
947.265630	1.20000000E+1	
947.753910	1.50000000E+1	
948.242190	1.90000000E+1	
948.730470	1.80000000E+1	
949.218750	1.90000000E+1	
949.70700	3.00000000E+1	
950.195310	1.90000000E+1	
950.683590	2.20000000E+1	
951.171880	1.30000000E+1	
951.660160	1.00000000E+1	
952.148440	1.50000000E+1	
952.636720	1.80000000E+1	
953.12500	1.80000000E+1	
953.613280	1.70000000E+1	
954.101560	2.10000000E+1	
954.589840	1.50000000E+1	
955.078130	1.30000000E+1	
955.566410	1.70000000E+1	
956.054690	2.00000000E+1	
956.54300	1.90000000E+1	
957.031250	2.40000000E+1	
957.519530	2.10000000E+1	
958.007810	1.60000000E+1	
958.496090	1.80000000E+1	
958.984380	2.50000000E+1	
959.472660	1.90000000E+1	
959.960940	1.80000000E+1	
960.449220	1.50000000E+1	
960.937500	9.00000000E+0	
961.425780	2.00000000E+1	
961.914060	1.60000000E+1	
962.402340	1.80000000E+1	
962.890630	1.30000000E+1	
963.378910	1.80000000E+1	
963.867190	1.70000000E+1	
964.355470	2.20000000E+1	
964.843750	1.60000000E+1	
965.33200	1.90000000E+1	
965.820310	1.50000000E+1	
966.308590	1.30000000E+1	
966.796880	1.70000000E+1	
967.285160	1.60000000E+1	
967.773440	1.60000000E+1	
968.261720	2.50000000E+1	
968.7500	2.10000000E+1	
969.238280	1.80000000E+1	
969.726560	1.60000000E+1	
970.214840	2.00000000E+1	
970.703130	1.70000000E+1	
971.191410	1.70000000E+1	
971.679690	1.50000000E+1	
972.16800	2.30000000E+1	
972.656250	1.30000000E+1	
973.144530	2.70000000E+1	
973.632810	2.00000000E+1	
974.121090	2.40000000E+1	
974.609380	2.30000000E+1	
975.097660	1.70000000E+1	
975.585940	2.20000000E+1	
976.074220	2.00000000E+1	
976.562500	1.50000000E+1	
977.050780	2.30000000E+1	
977.539060	1.20000000E+1	
978.027340	2.10000000E+1	
978.515630	1.60000000E+1	
979.003910	1.30000000E+1	
979.492190	1.50000000E+1	
979.980470	1.90000000E+1	
980.468750	1.70000000E+1	
980.95700	1.00000000E+1	
981.445310	1.70000000E+1	
981.933590	1.60000000E+1	
982.421880	1.90000000E+1	
982.910160	1.70000000E+1	
983.398440	2.30000000E+1	
983.886720	1.80000000E+1	
984.37500	1.40000000E+1	
984.863280	1.60000000E+1	
985.351560	1.30000000E+1	
985.839840	1.10000000E+1	
986.328130	1.90000000E+1	
986.816410	1.50000000E+1	
987.304690	1.90000000E+1	
987.79300	1.50000000E+1	
988.281250	1.50000000E+1	
988.769530	1.60000000E+1	
989.257810	1.40000000E+1	
989.746090	1.90000000E+1	
990.234380	1.90000000E+1	
990.722660	1.60000000E+1	
991.210940	1.60000000E+1	
991.699220	1.50000000E+1	
992.187500	1.60000000E+1	
992.675780	1.50000000E+1	
993.164060	1.60000000E+1	
993.652340	2.00000000E+1	
994.140630	1.70000000E+1	
994.628910	1.20000000E+1	
995.117190	2.30000000E+1	
995.605470	1.90000000E+1	
996.093750	1.70000000E+1	
996.58200	1.60000000E+1	
997.070310	2.10000000E+1	
997.558590	1.20000000E+1	
998.046880	2.10000000E+1	
998.535160	1.90000000E+1	
999.023440	1.50000000E+1	
999.511720	2.00000000E+1	
1000.00	1.70000000E+1	
1000.488300	1.20000000E+1	
1000.976600	2.50000000E+1	
1001.464800	1.60000000E+1	
1001.953100	1.90000000E+1	
1002.441400	1.10000000E+1	
1002.93000	1.80000000E+1	
1003.418000	1.60000000E+1	
1003.906300	1.80000000E+1	
1004.394500	1.50000000E+1	
1004.882800	2.00000000E+1	
1005.371100	1.60000000E+1	
1005.859400	1.70000000E+1	
1006.347700	1.80000000E+1	
1006.835900	2.00000000E+1	
1007.324200	1.30000000E+1	
1007.812500	1.50000000E+1	
1008.300800	2.40000000E+1	
1008.789100	2.00000000E+1	
1009.277300	1.60000000E+1	
1009.765600	1.50000000E+1	
1010.253900	1.40000000E+1	
1010.742200	1.20000000E+1	
1011.23000	2.40000000E+1	
1011.718800	1.50000000E+1	
1012.207000	1.70000000E+1	
1012.695300	1.80000000E+1	
1013.183600	1.80000000E+1	
1013.671900	2.10000000E+1	
1014.16000	1.30000000E+1	
1014.648400	1.80000000E+1	
1015.136700	2.50000000E+1	
1015.625000	1.70000000E+1	
1016.113300	1.90000000E+1	
1016.601600	1.50000000E+1	
1017.09000	1.80000000E+1	
1017.578100	2.90000000E+1	
1018.066400	2.10000000E+1	
1018.554700	1.10000000E+1	
1019.043000	1.90000000E+1	
1019.531300	1.70000000E+1	
1020.02000	1.70000000E+1	
1020.507800	1.70000000E+1	
1020.996100	2.30000000E+1	
1021.484400	1.40000000E+1	
1021.972700	1.80000000E+1	
1022.460900	1.90000000E+1	
1022.949200	1.70000000E+1	
1023.437500	1.50000000E+1	
1023.925800	1.60000000E+1	
1024.414100	1.60000000E+1	
1024.902300	2.10000000E+1	
1025.390600	1.60000000E+1	
1025.878900	1.90000000E+1	
1026.367200	7.00000000E+0	
1026.855500	1.30000000E+1	
1027.343800	2.40000000E+1	
1027.832000	1.70000000E+1	
1028.32000	2.30000000E+1	
1028.808600	2.30000000E+1	
1029.296900	2.20000000E+1	
1029.785200	1.00000000E+1	
1030.273400	1.60000000E+1	
1030.761700	1.70000000E+1	
1031.25000	2.30000000E+1	
1031.738300	1.60000000E+1	
1032.226600	8.00000000E+0	
1032.714800	1.70000000E+1	
1033.203100	1.60000000E+1	
1033.691400	1.90000000E+1	
1034.18000	1.60000000E+1	
1034.668000	1.70000000E+1	
1035.156300	1.40000000E+1	
1035.644500	2.60000000E+1	
1036.132800	1.90000000E+1	
1036.621100	1.80000000E+1	
1037.109400	1.90000000E+1	
1037.597700	1.50000000E+1	
1038.085900	1.30000000E+1	
1038.574200	2.20000000E+1	
1039.062500	1.70000000E+1	
1039.550800	1.70000000E+1	
1040.039100	1.30000000E+1	
1040.527300	2.00000000E+1	
1041.015600	1.60000000E+1	
1041.503900	1.30000000E+1	
1041.992200	1.50000000E+1	
1042.48000	1.30000000E+1	
1042.968800	1.40000000E+1	
1043.457000	1.60000000E+1	
1043.945300	1.80000000E+1	
1044.433600	1.80000000E+1	
1044.921900	2.30000000E+1	
1045.41000	1.70000000E+1	
1045.898400	1.70000000E+1	
1046.386700	1.30000000E+1	
1046.875000	2.30000000E+1	
1047.363300	1.40000000E+1	
1047.851600	1.80000000E+1	
1048.34000	2.10000000E+1	
1048.828100	1.50000000E+1	
1049.316400	2.20000000E+1	
1049.804700	1.40000000E+1	
1050.293000	1.20000000E+1	
1050.781300	1.90000000E+1	
1051.27000	1.30000000E+1	
1051.757800	2.00000000E+1	
1052.246100	1.40000000E+1	
1052.734400	1.40000000E+1	
1053.222700	1.80000000E+1	
1053.710900	1.30000000E+1	
1054.199200	1.70000000E+1	
1054.687500	1.60000000E+1	
1055.175800	1.90000000E+1	
1055.664100	8.00000000E+0	
1056.152300	2.40000000E+1	
1056.640600	1.20000000E+1	
1057.128900	1.60000000E+1	
1057.617200	1.90000000E+1	
1058.105500	1.60000000E+1	
1058.593800	1.60000000E+1	
1059.082000	1.70000000E+1	
1059.57000	1.40000000E+1	
1060.058600	1.50000000E+1	
1060.546900	1.00000000E+1	
1061.035200	2.80000000E+1	
1061.523400	1.60000000E+1	
1062.011700	2.00000000E+1	
1062.5000	1.90000000E+1	
1062.988300	2.60000000E+1	
1063.476600	1.50000000E+1	
1063.964800	2.00000000E+1	
1064.453100	1.60000000E+1	
1064.941400	2.00000000E+1	
1065.43000	1.70000000E+1	
1065.918000	1.90000000E+1	
1066.406300	1.40000000E+1	
1066.894500	1.20000000E+1	
1067.382800	1.80000000E+1	
1067.871100	2.20000000E+1	
1068.359400	1.30000000E+1	
1068.847700	1.70000000E+1	
1069.335900	1.60000000E+1	
1069.824200	2.30000000E+1	
1070.312500	1.10000000E+1	
1070.800800	2.70000000E+1	
1071.289100	1.50000000E+1	
1071.777300	2.00000000E+1	
1072.265600	1.80000000E+1	
1072.753900	1.50000000E+1	
1073.242200	1.40000000E+1	
1073.73000	2.10000000E+1	
1074.218800	1.50000000E+1	
1074.707000	2.90000000E+1	
1075.195300	1.90000000E+1	
1075.683600	1.70000000E+1	
1076.171900	1.40000000E+1	
1076.66000	1.30000000E+1	
1077.148400	4.00000000E+0	
1077.636700	1.80000000E+1	
1078.125000	1.10000000E+1	
1078.613300	2.10000000E+1	
1079.101600	1.90000000E+1	
1079.59000	2.20000000E+1	
1080.078100	2.30000000E+1	
1080.566400	1.60000000E+1	
1081.054700	1.90000000E+1	
1081.543000	1.50000000E+1	
1082.031300	1.60000000E+1	
1082.52000	2.40000000E+1	
1083.007800	1.50000000E+1	
1083.496100	1.50000000E+1	
1083.984400	2.00000000E+1	
1084.472700	2.00000000E+1	
1084.960900	1.10000000E+1	
1085.449200	2.00000000E+1	
1085.937500	1.40000000E+1	
1086.425800	1.60000000E+1	
1086.914100	1.30000000E+1	
1087.402300	1.40000000E+1	
1087.890600	1.20000000E+1	
1088.378900	1.90000000E+1	
1088.867200	1.20000000E+1	
1089.355500	2.10000000E+1	
1089.843800	1.50000000E+1	
1090.332000	1.40000000E+1	
1090.82000	1.60000000E+1	
1091.308600	1.30000000E+1	
1091.796900	1.00000000E+1	
1092.285200	2.00000000E+1	
1092.773400	1.60000000E+1	
1093.261700	1.40000000E+1	
1093.75000	1.60000000E+1	
1094.238300	1.30000000E+1	
1094.726600	1.70000000E+1	
1095.214800	1.50000000E+1	
1095.703100	1.30000000E+1	
1096.191400	1.40000000E+1	
1096.68000	1.50000000E+1	
1097.168000	2.30000000E+1	
1097.656300	2.00000000E+1	
1098.144500	1.70000000E+1	
1098.632800	1.70000000E+1	
1099.121100	2.60000000E+1	
1099.609400	1.90000000E+1	
1100.097700	1.90000000E+1	
1100.585900	2.00000000E+1	
1101.074200	2.30000000E+1	
1101.562500	1.50000000E+1	
1102.050800	1.40000000E+1	
1102.539100	1.30000000E+1	
1103.027300	2.00000000E+1	
1103.515600	1.40000000E+1	
1104.003900	1.80000000E+1	
1104.492200	2.50000000E+1	
1104.98000	1.40000000E+1	
1105.468800	1.20000000E+1	
1105.957000	1.40000000E+1	
1106.445300	2.30000000E+1	
1106.933600	1.70000000E+1	
1107.421900	1.70000000E+1	
1107.91000	2.10000000E+1	
1108.398400	1.40000000E+1	
1108.886700	1.10000000E+1	
1109.375000	2.00000000E+1	
1109.863300	1.60000000E+1	
1110.351600	1.60000000E+1	
1110.84000	1.90000000E+1	
1111.328100	1.60000000E+1	
1111.816400	1.80000000E+1	
1112.304700	1.40000000E+1	
1112.793000	2.20000000E+1	
1113.281300	1.60000000E+1	
1113.77000	1.40000000E+1	
1114.257800	9.00000000E+0	
1114.746100	1.70000000E+1	
1115.234400	1.50000000E+1	
1115.722700	1.70000000E+1	
1116.210900	1.70000000E+1	
1116.699200	1.50000000E+1	
1117.187500	1.10000000E+1	
1117.675800	2.40000000E+1	
1118.164100	2.10000000E+1	
1118.652300	1.80000000E+1	
1119.140600	1.50000000E+1	
1119.628900	1.60000000E+1	
1120.117200	1.70000000E+1	
1120.605500	1.80000000E+1	
1121.093800	1.40000000E+1	
1121.582000	1.90000000E+1	
1122.07000	2.00000000E+1	
1122.558600	1.90000000E+1	
1123.046900	1.60000000E+1	
1123.535200	1.50000000E+1	
1124.023400	2.30000000E+1	
1124.511700	1.40000000E+1	
1125.000	1.40000000E+1	
1125.488300	1.20000000E+1	
1125.976600	1.60000000E+1	
1126.464800	1.80000000E+1	
1126.953100	1.60000000E+1	
1127.441400	1.20000000E+1	
1127.93000	1.60000000E+1	
1128.418000	1.40000000E+1	
1128.906300	1.80000000E+1	
1129.394500	1.50000000E+1	
1129.882800	1.40000000E+1	
1130.371100	1.10000000E+1	
1130.859400	1.40000000E+1	
1131.347700	1.30000000E+1	
1131.835900	1.50000000E+1	
1132.324200	1.00000000E+1	
1132.812500	1.90000000E+1	
1133.300800	7.00000000E+0	
1133.789100	1.70000000E+1	
1134.277300	2.50000000E+1	
1134.765600	1.90000000E+1	
1135.253900	2.50000000E+1	
1135.742200	1.90000000E+1	
1136.23000	1.70000000E+1	
1136.718800	1.60000000E+1	
1137.207000	1.60000000E+1	
1137.695300	1.80000000E+1	
1138.183600	9.00000000E+0	
1138.671900	1.90000000E+1	
1139.16000	1.60000000E+1	
1139.648400	1.60000000E+1	
1140.136700	1.50000000E+1	
1140.625000	1.90000000E+1	
1141.113300	1.60000000E+1	
1141.601600	1.60000000E+1	
1142.09000	2.10000000E+1	
1142.578100	2.10000000E+1	
1143.066400	9.00000000E+0	
1143.554700	2.10000000E+1	
1144.043000	1.40000000E+1	
1144.531300	1.60000000E+1	
1145.02000	2.10000000E+1	
1145.507800	1.40000000E+1	
1145.996100	1.50000000E+1	
1146.484400	2.20000000E+1	
1146.972700	1.50000000E+1	
1147.460900	1.70000000E+1	
1147.949200	1.50000000E+1	
1148.437500	1.20000000E+1	
1148.925800	9.00000000E+0	
1149.414100	1.30000000E+1	
1149.902300	1.10000000E+1	
1150.390600	1.00000000E+1	
1150.878900	1.60000000E+1	
1151.367200	2.30000000E+1	
1151.855500	2.40000000E+1	
1152.343800	2.00000000E+1	
1152.832000	1.80000000E+1	
1153.32000	1.80000000E+1	
1153.808600	1.40000000E+1	
1154.296900	1.70000000E+1	
1154.785200	1.60000000E+1	
1155.273400	2.10000000E+1	
1155.761700	1.70000000E+1	
1156.25000	1.20000000E+1	
1156.738300	2.50000000E+1	
1157.226600	6.00000000E+0	
1157.714800	1.50000000E+1	
1158.203100	1.80000000E+1	
1158.691400	2.40000000E+1	
1159.18000	1.30000000E+1	
1159.668000	2.10000000E+1	
1160.156300	1.50000000E+1	
1160.644500	1.70000000E+1	
1161.132800	1.70000000E+1	
1161.621100	1.50000000E+1	
1162.109400	1.10000000E+1	
1162.597700	1.80000000E+1	
1163.085900	2.10000000E+1	
1163.574200	1.20000000E+1	
1164.062500	1.40000000E+1	
1164.550800	2.00000000E+1	
1165.039100	1.50000000E+1	
1165.527300	1.00000000E+1	
1166.015600	1.60000000E+1	
1166.503900	1.30000000E+1	
1166.992200	1.00000000E+1	
1167.48000	1.90000000E+1	
1167.968800	5.00000000E+0	
1168.457000	1.40000000E+1	
1168.945300	2.00000000E+1	
1169.433600	3.00000000E+1	
1169.921900	1.60000000E+1	
1170.41000	1.60000000E+1	
1170.898400	1.60000000E+1	
1171.386700	1.40000000E+1	
1171.875000	1.20000000E+1	
1172.363300	1.20000000E+1	
1172.851600	1.40000000E+1	
1173.34000	1.60000000E+1	
1173.828100	2.10000000E+1	
1174.316400	1.50000000E+1	
1174.804700	2.20000000E+1	
1175.293000	2.30000000E+1	
1175.781300	2.30000000E+1	
1176.27000	1.40000000E+1	
1176.757800	1.80000000E+1	
1177.246100	1.20000000E+1	
1177.734400	1.60000000E+1	
1178.222700	1.70000000E+1	
1178.710900	1.70000000E+1	
1179.199200	1.30000000E+1	
1179.687500	1.80000000E+1	
1180.175800	1.50000000E+1	
1180.664100	1.40000000E+1	
1181.152300	1.10000000E+1	
1181.640600	1.20000000E+1	
1182.128900	1.90000000E+1	
1182.617200	1.60000000E+1	
1183.105500	1.90000000E+1	
1183.593800	1.30000000E+1	
1184.082000	1.30000000E+1	
1184.57000	1.40000000E+1	
1185.058600	1.30000000E+1	
1185.546900	1.30000000E+1	
1186.035200	1.40000000E+1	
1186.523400	1.50000000E+1	
1187.011700	2.20000000E+1	
1187.5000	1.00000000E+1	
1187.988300	1.00000000E+1	
1188.476600	1.70000000E+1	
1188.964800	1.60000000E+1	
1189.453100	1.40000000E+1	
1189.941400	1.20000000E+1	
1190.43000	1.10000000E+1	
1190.918000	1.50000000E+1	
1191.406300	1.60000000E+1	
1191.894500	2.10000000E+1	
1192.382800	1.80000000E+1	
1192.871100	1.10000000E+1	
1193.359400	1.30000000E+1	
1193.847700	1.40000000E+1	
1194.335900	1.10000000E+1	
1194.824200	1.80000000E+1	
1195.312500	1.60000000E+1	
1195.800800	1.40000000E+1	
1196.289100	2.10000000E+1	
1196.777300	2.10000000E+1	
1197.265600	1.60000000E+1	
1197.753900	2.00000000E+1	
1198.242200	1.40000000E+1	
1198.73000	1.70000000E+1	
1199.218800	1.80000000E+1	
1199.707000	1.90000000E+1	
1200.195300	1.80000000E+1	
1200.683600	2.10000000E+1	
1201.171900	1.50000000E+1	
1201.66000	1.70000000E+1	
1202.148400	1.60000000E+1	
1202.636700	1.90000000E+1	
1203.125000	1.30000000E+1	
1203.613300	1.60000000E+1	
1204.101600	2.10000000E+1	
1204.59000	1.20000000E+1	
1205.078100	1.90000000E+1	
1205.566400	1.60000000E+1	
1206.054700	1.50000000E+1	
1206.543000	1.00000000E+1	
1207.031300	2.00000000E+1	
1207.52000	1.60000000E+1	
1208.007800	1.40000000E+1	
1208.496100	1.30000000E+1	
1208.984400	2.30000000E+1	
1209.472700	2.10000000E+1	
1209.960900	1.70000000E+1	
1210.449200	2.10000000E+1	
1210.937500	2.10000000E+1	
1211.425800	1.00000000E+1	
1211.914100	1.40000000E+1	
1212.402300	1.30000000E+1	
1212.890600	2.40000000E+1	
1213.378900	2.00000000E+1	
1213.867200	1.80000000E+1	
1214.355500	9.00000000E+0	
1214.843800	1.40000000E+1	
1215.332000	1.30000000E+1	
1215.82000	1.00000000E+1	
1216.308600	1.70000000E+1	
1216.796900	1.80000000E+1	
1217.285200	1.50000000E+1	
1217.773400	2.20000000E+1	
1218.261700	2.00000000E+1	
1218.75000	1.50000000E+1	
1219.238300	2.50000000E+1	
1219.726600	2.00000000E+1	
1220.214800	1.70000000E+1	
1220.703100	1.10000000E+1	
1221.191400	1.40000000E+1	
1221.68000	2.00000000E+1	
1222.168000	1.60000000E+1	
1222.656300	7.00000000E+0	
1223.144500	1.50000000E+1	
1223.632800	2.10000000E+1	
1224.121100	1.50000000E+1	
1224.609400	1.50000000E+1	
1225.097700	1.10000000E+1	
1225.585900	1.50000000E+1	
1226.074200	1.70000000E+1	
1226.562500	1.60000000E+1	
1227.050800	1.60000000E+1	
1227.539100	1.10000000E+1	
1228.027300	2.00000000E+1	
1228.515600	1.50000000E+1	
1229.003900	1.60000000E+1	
1229.492200	1.20000000E+1	
1229.98000	2.50000000E+1	
1230.468800	2.00000000E+1	
1230.957000	1.50000000E+1	
1231.445300	1.30000000E+1	
1231.933600	1.20000000E+1	
1232.421900	1.80000000E+1	
1232.91000	2.40000000E+1	
1233.398400	1.10000000E+1	
1233.886700	1.90000000E+1	
1234.375000	1.10000000E+1	
1234.863300	1.80000000E+1	
1235.351600	1.30000000E+1	
1235.84000	1.30000000E+1	
1236.328100	1.00000000E+1	
1236.816400	1.20000000E+1	
1237.304700	1.90000000E+1	
1237.793000	2.00000000E+1	
1238.281300	1.80000000E+1	
1238.77000	2.30000000E+1	
1239.257800	1.60000000E+1	
1239.746100	2.50000000E+1	
1240.234400	1.40000000E+1	
1240.722700	1.70000000E+1	
1241.210900	1.50000000E+1	
1241.699200	1.60000000E+1	
1242.187500	1.60000000E+1	
1242.675800	1.90000000E+1	
1243.164100	1.80000000E+1	
1243.652300	1.70000000E+1	
1244.140600	1.50000000E+1	
1244.628900	1.50000000E+1	
1245.117200	9.00000000E+0	
1245.605500	1.50000000E+1	
1246.093800	1.90000000E+1	
1246.582000	1.40000000E+1	
1247.07000	1.90000000E+1	
1247.558600	2.10000000E+1	
1248.046900	1.70000000E+1	
1248.535200	1.70000000E+1	
1249.023400	1.50000000E+1	
1249.511700	1.60000000E+1	
1250.00	2.10000000E+1	
1250.488300	2.50000000E+1	
1250.976600	1.50000000E+1	
1251.464800	1.90000000E+1	
1251.953100	1.20000000E+1	
1252.441400	1.40000000E+1	
1252.93000	1.20000000E+1	
1253.418000	2.50000000E+1	
1253.906300	1.70000000E+1	
1254.394500	6.00000000E+0	
1254.882800	9.00000000E+0	
1255.371100	1.80000000E+1	
1255.859400	1.30000000E+1	
1256.347700	1.70000000E+1	
1256.835900	1.60000000E+1	
1257.324200	1.40000000E+1	
1257.812500	1.70000000E+1	
1258.300800	1.40000000E+1	
1258.789100	1.00000000E+1	
1259.277300	1.10000000E+1	
1259.765600	1.40000000E+1	
1260.253900	1.40000000E+1	
1260.742200	1.20000000E+1	
1261.23000	1.50000000E+1	
1261.718800	1.10000000E+1	
1262.207000	2.50000000E+1	
1262.695300	1.40000000E+1	
1263.183600	1.60000000E+1	
1263.671900	1.60000000E+1	
1264.16000	2.10000000E+1	
1264.648400	1.30000000E+1	
1265.136700	1.50000000E+1	
1265.625000	1.10000000E+1	
1266.113300	2.20000000E+1	
1266.601600	1.20000000E+1	
1267.09000	2.00000000E+1	
1267.578100	2.50000000E+1	
1268.066400	8.00000000E+0	
1268.554700	1.50000000E+1	
1269.043000	1.30000000E+1	
1269.531300	1.60000000E+1	
1270.02000	1.20000000E+1	
1270.507800	1.80000000E+1	
1270.996100	1.30000000E+1	
1271.484400	2.30000000E+1	
1271.972700	2.10000000E+1	
1272.460900	1.40000000E+1	
1272.949200	1.20000000E+1	
1273.437500	2.10000000E+1	
1273.925800	1.80000000E+1	
1274.414100	1.60000000E+1	
1274.902300	1.20000000E+1	
1275.390600	1.50000000E+1	
1275.878900	2.20000000E+1	
1276.367200	1.00000000E+1	
1276.855500	1.50000000E+1	
1277.343800	1.50000000E+1	
1277.832000	1.90000000E+1	
1278.32000	1.30000000E+1	
1278.808600	1.30000000E+1	
1279.296900	1.20000000E+1	
1279.785200	1.30000000E+1	
1280.273400	1.50000000E+1	
1280.761700	1.50000000E+1	
1281.25000	2.00000000E+1	
1281.738300	1.50000000E+1	
1282.226600	1.70000000E+1	
1282.714800	2.00000000E+1	
1283.203100	1.30000000E+1	
1283.691400	1.60000000E+1	
1284.18000	1.20000000E+1	
1284.668000	1.60000000E+1	
1285.156300	1.40000000E+1	
1285.644500	1.50000000E+1	
1286.132800	1.80000000E+1	
1286.621100	1.60000000E+1	
1287.109400	1.40000000E+1	
1287.597700	1.20000000E+1	
1288.085900	9.00000000E+0	
1288.574200	7.00000000E+0	
1289.062500	2.80000000E+1	
1289.550800	1.10000000E+1	
1290.039100	1.90000000E+1	
1290.527300	1.80000000E+1	
1291.015600	1.70000000E+1	
1291.503900	1.20000000E+1	
1291.992200	1.30000000E+1	
1292.48000	1.30000000E+1	
1292.968800	9.00000000E+0	
1293.457000	1.60000000E+1	
1293.945300	1.40000000E+1	
1294.433600	1.60000000E+1	
1294.921900	1.60000000E+1	
1295.41000	1.50000000E+1	
1295.898400	1.20000000E+1	
1296.386700	1.60000000E+1	
1296.875000	1.00000000E+1	
1297.363300	1.40000000E+1	
1297.851600	1.50000000E+1	
1298.34000	2.20000000E+1	
1298.828100	1.30000000E+1	
1299.316400	1.40000000E+1	
1299.804700	1.20000000E+1	
1300.293000	1.90000000E+1	
1300.781300	1.90000000E+1	
1301.27000	2.20000000E+1	
1301.757800	1.60000000E+1	
1302.246100	2.00000000E+1	
1302.734400	1.40000000E+1	
1303.222700	1.90000000E+1	
1303.710900	1.70000000E+1	
1304.199200	2.40000000E+1	
1304.687500	1.50000000E+1	
1305.175800	1.60000000E+1	
1305.664100	2.20000000E+1	
1306.152300	1.40000000E+1	
1306.640600	1.20000000E+1	
1307.128900	1.90000000E+1	
1307.617200	2.10000000E+1	
1308.105500	1.20000000E+1	
1308.593800	2.10000000E+1	
1309.082000	1.40000000E+1	
1309.57000	2.00000000E+1	
1310.058600	1.10000000E+1	
1310.546900	1.80000000E+1	
1311.035200	1.90000000E+1	
1311.523400	1.40000000E+1	
1312.011700	1.60000000E+1	
1312.5000	1.50000000E+1	
1312.988300	1.20000000E+1	
1313.476600	1.90000000E+1	
1313.964800	1.10000000E+1	
1314.453100	1.80000000E+1	
1314.941400	9.00000000E+0	
1315.43000	1.80000000E+1	
1315.918000	1.70000000E+1	
1316.406300	8.00000000E+0	
1316.894500	1.20000000E+1	
1317.382800	1.80000000E+1	
1317.871100	1.30000000E+1	
1318.359400	1.50000000E+1	
1318.847700	1.70000000E+1	
1319.335900	1.30000000E+1	
1319.824200	1.20000000E+1	
1320.312500	1.80000000E+1	
1320.800800	1.80000000E+1	
1321.289100	1.50000000E+1	
1321.777300	1.50000000E+1	
1322.265600	9.00000000E+0	
1322.753900	1.70000000E+1	
1323.242200	1.70000000E+1	
1323.73000	1.60000000E+1	
1324.218800	1.40000000E+1	
1324.707000	1.50000000E+1	
1325.195300	1.20000000E+1	
1325.683600	2.50000000E+1	
1326.171900	1.30000000E+1	
1326.66000	1.20000000E+1	
1327.148400	1.30000000E+1	
1327.636700	2.40000000E+1	
1328.125000	2.00000000E+1	
1328.613300	1.10000000E+1	
1329.101600	1.30000000E+1	
1329.59000	1.50000000E+1	
1330.078100	1.20000000E+1	
1330.566400	1.90000000E+1	
1331.054700	1.50000000E+1	
1331.543000	1.10000000E+1	
1332.031300	1.30000000E+1	
1332.52000	1.00000000E+1	
1333.007800	1.40000000E+1	
1333.496100	2.30000000E+1	
1333.984400	1.10000000E+1	
1334.472700	1.60000000E+1	
1334.960900	2.10000000E+1	
1335.449200	2.00000000E+1	
1335.937500	9.00000000E+0	
1336.425800	2.20000000E+1	
1336.914100	1.20000000E+1	
1337.402300	1.30000000E+1	
1337.890600	1.20000000E+1	
1338.378900	1.90000000E+1	
1338.867200	2.10000000E+1	
1339.355500	1.90000000E+1	
1339.843800	2.00000000E+1	
1340.332000	1.50000000E+1	
1340.82000	1.50000000E+1	
1341.308600	1.60000000E+1	
1341.796900	1.70000000E+1	
1342.285200	2.00000000E+1	
1342.773400	1.00000000E+1	
1343.261700	1.50000000E+1	
1343.75000	1.40000000E+1	
1344.238300	1.10000000E+1	
1344.726600	1.50000000E+1	
1345.214800	2.00000000E+1	
1345.703100	1.60000000E+1	
1346.191400	1.30000000E+1	
1346.68000	1.90000000E+1	
1347.168000	9.00000000E+0	
1347.656300	2.40000000E+1	
1348.144500	1.70000000E+1	
1348.632800	1.50000000E+1	
1349.121100	1.70000000E+1	
1349.609400	1.50000000E+1	
1350.097700	2.50000000E+1	
1350.585900	1.70000000E+1	
1351.074200	1.40000000E+1	
1351.562500	1.80000000E+1	
1352.050800	1.90000000E+1	
1352.539100	9.00000000E+0	
1353.027300	1.40000000E+1	
1353.515600	1.40000000E+1	
1354.003900	1.70000000E+1	
1354.492200	1.50000000E+1	
1354.98000	1.70000000E+1	
1355.468800	1.10000000E+1	
1355.957000	1.50000000E+1	
1356.445300	1.60000000E+1	
1356.933600	1.70000000E+1	
1357.421900	1.80000000E+1	
1357.91000	1.40000000E+1	
1358.398400	1.70000000E+1	
1358.886700	1.60000000E+1	
1359.375000	1.60000000E+1	
1359.863300	1.30000000E+1	
1360.351600	1.90000000E+1	
1360.84000	9.00000000E+0	
1361.328100	1.30000000E+1	
1361.816400	5.00000000E+0	
1362.304700	1.70000000E+1	
1362.793000	2.30000000E+1	
1363.281300	1.60000000E+1	
1363.77000	1.60000000E+1	
1364.257800	1.10000000E+1	
1364.746100	1.40000000E+1	
1365.234400	1.60000000E+1	
1365.722700	2.00000000E+1	
1366.210900	1.40000000E+1	
1366.699200	1.10000000E+1	
1367.187500	1.30000000E+1	
1367.675800	1.50000000E+1	
1368.164100	2.20000000E+1	
1368.652300	2.10000000E+1	
1369.140600	1.40000000E+1	
1369.628900	2.20000000E+1	
1370.117200	1.40000000E+1	
1370.605500	1.50000000E+1	
1371.093800	1.30000000E+1	
1371.582000	1.40000000E+1	
1372.07000	1.50000000E+1	
1372.558600	1.50000000E+1	
1373.046900	2.00000000E+1	
1373.535200	1.40000000E+1	
1374.023400	2.30000000E+1	
1374.511700	1.40000000E+1	
1375.000	1.90000000E+1	
1375.488300	1.70000000E+1	
1375.976600	1.90000000E+1	
1376.464800	1.50000000E+1	
1376.953100	1.70000000E+1	
1377.441400	9.00000000E+0	
1377.93000	1.10000000E+1	
1378.418000	1.40000000E+1	
1378.906300	1.50000000E+1	
1379.394500	1.50000000E+1	
1379.882800	1.50000000E+1	
1380.371100	1.40000000E+1	
1380.859400	1.90000000E+1	
1381.347700	1.60000000E+1	
1381.835900	7.00000000E+0	
1382.324200	2.00000000E+1	
1382.812500	1.30000000E+1	
1383.300800	1.90000000E+1	
1383.789100	1.30000000E+1	
1384.277300	1.60000000E+1	
1384.765600	2.40000000E+1	
1385.253900	2.60000000E+1	
1385.742200	1.50000000E+1	
1386.23000	1.00000000E+1	
1386.718800	2.80000000E+1	
1387.207000	1.50000000E+1	
1387.695300	1.80000000E+1	
1388.183600	1.90000000E+1	
1388.671900	1.10000000E+1	
1389.16000	1.20000000E+1	
1389.648400	1.50000000E+1	
1390.136700	1.60000000E+1	
1390.625000	7.00000000E+0	
1391.113300	1.40000000E+1	
1391.601600	1.90000000E+1	
1392.09000	1.90000000E+1	
1392.578100	1.50000000E+1	
1393.066400	1.80000000E+1	
1393.554700	1.40000000E+1	
1394.043000	9.00000000E+0	
1394.531300	2.80000000E+1	
1395.02000	1.20000000E+1	
1395.507800	2.20000000E+1	
1395.996100	1.80000000E+1	
1396.484400	9.00000000E+0	
1396.972700	1.60000000E+1	
1397.460900	1.30000000E+1	
1397.949200	1.50000000E+1	
1398.437500	1.50000000E+1	
1398.925800	1.90000000E+1	
1399.414100	1.90000000E+1	
1399.902300	1.60000000E+1	
1400.390600	7.00000000E+0	
1400.878900	1.10000000E+1	
1401.367200	1.00000000E+1	
1401.855500	1.40000000E+1	
1402.343800	1.60000000E+1	
1402.832000	2.10000000E+1	
1403.32000	1.20000000E+1	
1403.808600	1.20000000E+1	
1404.296900	1.70000000E+1	
1404.785200	1.20000000E+1	
1405.273400	1.60000000E+1	
1405.761700	1.70000000E+1	
1406.25000	1.50000000E+1	
1406.738300	1.50000000E+1	
1407.226600	1.40000000E+1	
1407.714800	1.30000000E+1	
1408.203100	1.30000000E+1	
1408.691400	1.60000000E+1	
1409.18000	1.30000000E+1	
1409.668000	5.00000000E+0	
1410.156300	2.10000000E+1	
1410.644500	1.60000000E+1	
1411.132800	1.00000000E+1	
1411.621100	1.40000000E+1	
1412.109400	2.10000000E+1	
1412.597700	9.00000000E+0	
1413.085900	1.40000000E+1	
1413.574200	1.60000000E+1	
1414.062500	1.10000000E+1	
1414.550800	1.90000000E+1	
1415.039100	8.00000000E+0	
1415.527300	1.90000000E+1	
1416.015600	9.00000000E+0	
1416.503900	1.50000000E+1	
1416.992200	1.50000000E+1	
1417.48000	1.50000000E+1	
1417.968800	8.00000000E+0	
1418.457000	1.40000000E+1	
1418.945300	1.10000000E+1	
1419.433600	1.30000000E+1	
1419.921900	1.70000000E+1	
1420.41000	1.80000000E+1	
1420.898400	1.50000000E+1	
1421.386700	1.50000000E+1	
1421.875000	7.00000000E+0	
1422.363300	1.60000000E+1	
1422.851600	1.20000000E+1	
1423.34000	1.80000000E+1	
1423.828100	1.00000000E+1	
1424.316400	9.00000000E+0	
1424.804700	1.80000000E+1	
1425.293000	1.00000000E+1	
1425.781300	1.10000000E+1	
1426.27000	1.00000000E+1	
1426.757800	1.30000000E+1	
1427.246100	1.40000000E+1	
1427.734400	1.70000000E+1	
1428.222700	1.40000000E+1	
1428.710900	1.30000000E+1	
1429.199200	1.70000000E+1	
1429.687500	2.10000000E+1	
1430.175800	1.40000000E+1	
1430.664100	1.20000000E+1	
1431.152300	8.00000000E+0	
1431.640600	1.40000000E+1	
1432.128900	1.20000000E+1	
1432.617200	9.00000000E+0	
1433.105500	2.10000000E+1	
1433.593800	1.80000000E+1	
1434.082000	1.40000000E+1	
1434.57000	1.90000000E+1	
1435.058600	1.30000000E+1	
1435.546900	1.30000000E+1	
1436.035200	1.90000000E+1	
1436.523400	1.70000000E+1	
1437.011700	9.00000000E+0	
1437.5000	1.20000000E+1	
1437.988300	2.40000000E+1	
1438.476600	1.50000000E+1	
1438.964800	1.40000000E+1	
1439.453100	1.10000000E+1	
1439.941400	7.00000000E+0	
1440.43000	1.00000000E+1	
1440.918000	1.70000000E+1	
1441.406300	1.20000000E+1	
1441.894500	1.60000000E+1	
1442.382800	1.70000000E+1	
1442.871100	7.00000000E+0	
1443.359400	1.80000000E+1	
1443.847700	1.30000000E+1	
1444.335900	1.00000000E+1	
1444.824200	1.20000000E+1	
1445.312500	1.20000000E+1	
1445.800800	1.70000000E+1	
1446.289100	1.20000000E+1	
1446.777300	1.80000000E+1	
1447.265600	1.90000000E+1	
1447.753900	2.00000000E+1	
1448.242200	2.30000000E+1	
1448.73000	1.90000000E+1	
1449.218800	1.40000000E+1	
1449.707000	1.50000000E+1	
1450.195300	1.10000000E+1	
1450.683600	1.30000000E+1	
1451.171900	1.60000000E+1	
1451.66000	1.90000000E+1	
1452.148400	1.20000000E+1	
1452.636700	1.60000000E+1	
1453.125000	1.10000000E+1	
1453.613300	1.50000000E+1	
1454.101600	1.20000000E+1	
1454.59000	1.70000000E+1	
1455.078100	2.00000000E+1	
1455.566400	1.50000000E+1	
1456.054700	1.50000000E+1	
1456.543000	1.00000000E+1	
1457.031300	1.50000000E+1	
1457.52000	2.00000000E+1	
1458.007800	1.30000000E+1	
1458.496100	1.20000000E+1	
1458.984400	8.00000000E+0	
1459.472700	1.20000000E+1	
1459.960900	4.00000000E+0	
1460.449200	1.70000000E+1	
1460.937500	1.30000000E+1	
1461.425800	1.80000000E+1	
1461.914100	1.20000000E+1	
1462.402300	1.20000000E+1	
1462.890600	1.20000000E+1	
1463.378900	1.50000000E+1	
1463.867200	1.10000000E+1	
1464.355500	1.70000000E+1	
1464.843800	7.00000000E+0	
1465.332000	1.30000000E+1	
1465.82000	1.30000000E+1	
1466.308600	1.60000000E+1	
1466.796900	2.00000000E+1	
1467.285200	1.50000000E+1	
1467.773400	1.00000000E+1	
1468.261700	1.30000000E+1	
1468.75000	1.40000000E+1	
1469.238300	1.20000000E+1	
1469.726600	1.50000000E+1	
1470.214800	1.80000000E+1	
1470.703100	1.80000000E+1	
1471.191400	1.00000000E+1	
1471.68000	1.50000000E+1	
1472.168000	1.60000000E+1	
1472.656300	1.40000000E+1	
1473.144500	1.80000000E+1	
1473.632800	1.30000000E+1	
1474.121100	9.00000000E+0	
1474.609400	1.70000000E+1	
1475.097700	1.80000000E+1	
1475.585900	2.00000000E+1	
1476.074200	1.30000000E+1	
1476.562500	1.80000000E+1	
1477.050800	1.40000000E+1	
1477.539100	1.10000000E+1	
1478.027300	2.40000000E+1	
1478.515600	1.70000000E+1	
1479.003900	7.00000000E+0	
1479.492200	1.10000000E+1	
1479.98000	1.30000000E+1	
1480.468800	1.20000000E+1	
1480.957000	9.00000000E+0	
1481.445300	1.90000000E+1	
1481.933600	1.60000000E+1	
1482.421900	1.80000000E+1	
1482.91000	1.50000000E+1	
1483.398400	1.70000000E+1	
1483.886700	1.30000000E+1	
1484.375000	1.50000000E+1	
1484.863300	1.50000000E+1	
1485.351600	1.40000000E+1	
1485.84000	1.40000000E+1	
1486.328100	1.50000000E+1	
1486.816400	2.00000000E+1	
1487.304700	1.30000000E+1	
1487.793000	2.10000000E+1	
1488.281300	1.70000000E+1	
1488.77000	8.00000000E+0	
1489.257800	1.20000000E+1	
1489.746100	1.20000000E+1	
1490.234400	1.30000000E+1	
1490.722700	1.30000000E+1	
1491.210900	7.00000000E+0	
1491.699200	1.70000000E+1	
1492.187500	1.20000000E+1	
1492.675800	1.80000000E+1	
1493.164100	1.50000000E+1	
1493.652300	1.60000000E+1	
1494.140600	1.60000000E+1	
1494.628900	1.40000000E+1	
1495.117200	1.60000000E+1	
1495.605500	2.20000000E+1	
1496.093800	1.50000000E+1	
1496.582000	2.80000000E+1	
1497.07000	2.00000000E+1	
1497.558600	1.90000000E+1	
1498.046900	1.50000000E+1	
1498.535200	2.10000000E+1	
1499.023400	9.00000000E+0	
1499.511700	1.30000000E+1	
1500.00	1.60000000E+1	
1500.488300	1.30000000E+1	
1500.976600	1.70000000E+1	
1501.464800	1.60000000E+1	
1501.953100	1.30000000E+1	
1502.441400	2.00000000E+1	
1502.93000	7.00000000E+0	
1503.418000	1.80000000E+1	
1503.906300	1.00000000E+1	
1504.394500	1.40000000E+1	
1504.882800	9.00000000E+0	
1505.371100	1.20000000E+1	
1505.859400	1.40000000E+1	
1506.347700	9.00000000E+0	
1506.835900	1.80000000E+1	
1507.324200	1.30000000E+1	
1507.812500	1.10000000E+1	
1508.300800	2.10000000E+1	
1508.789100	1.00000000E+1	
1509.277300	1.40000000E+1	
1509.765600	2.30000000E+1	
1510.253900	1.10000000E+1	
1510.742200	1.30000000E+1	
1511.23000	1.00000000E+1	
1511.718800	1.80000000E+1	
1512.207000	2.00000000E+1	
1512.695300	1.40000000E+1	
1513.183600	1.70000000E+1	
1513.671900	2.00000000E+1	
1514.16000	8.00000000E+0	
1514.648400	1.00000000E+1	
1515.136700	1.70000000E+1	
1515.625000	5.00000000E+0	
1516.113300	1.30000000E+1	
1516.601600	2.00000000E+1	
1517.09000	2.10000000E+1	
1517.578100	1.20000000E+1	
1518.066400	1.70000000E+1	
1518.554700	1.80000000E+1	
1519.043000	1.70000000E+1	
1519.531300	1.50000000E+1	
1520.02000	1.80000000E+1	
1520.507800	1.40000000E+1	
1520.996100	1.70000000E+1	
1521.484400	1.30000000E+1	
1521.972700	1.30000000E+1	
1522.460900	1.00000000E+1	
1522.949200	8.00000000E+0	
1523.437500	1.80000000E+1	
1523.925800	2.60000000E+1	
1524.414100	1.40000000E+1	
1524.902300	1.70000000E+1	
1525.390600	1.30000000E+1	
1525.878900	1.80000000E+1	
1526.367200	1.30000000E+1	
1526.855500	1.40000000E+1	
1527.343800	1.60000000E+1	
1527.832000	2.20000000E+1	
1528.32000	1.00000000E+1	
1528.808600	1.30000000E+1	
1529.296900	1.50000000E+1	
1529.785200	1.00000000E+1	
1530.273400	1.50000000E+1	
1530.761700	1.70000000E+1	
1531.25000	1.20000000E+1	
1531.738300	1.50000000E+1	
1532.226600	1.40000000E+1	
1532.714800	1.40000000E+1	
1533.203100	2.60000000E+1	
1533.691400	1.10000000E+1	
1534.18000	1.00000000E+1	
1534.668000	1.50000000E+1	
1535.156300	2.50000000E+1	
1535.644500	1.30000000E+1	
1536.132800	1.00000000E+1	
1536.621100	1.60000000E+1	
1537.109400	1.50000000E+1	
1537.597700	1.00000000E+1	
1538.085900	1.60000000E+1	
1538.574200	2.00000000E+1	
1539.062500	1.20000000E+1	
1539.550800	1.80000000E+1	
1540.039100	1.80000000E+1	
1540.527300	1.20000000E+1	
1541.015600	1.70000000E+1	
1541.503900	1.80000000E+1	
1541.992200	1.60000000E+1	
1542.48000	1.80000000E+1	
1542.968800	1.50000000E+1	
1543.457000	1.20000000E+1	
1543.945300	9.00000000E+0	
1544.433600	1.30000000E+1	
1544.921900	1.60000000E+1	
1545.41000	1.60000000E+1	
1545.898400	1.00000000E+1	
1546.386700	1.20000000E+1	
1546.875000	2.40000000E+1	
1547.363300	1.40000000E+1	
1547.851600	1.90000000E+1	
1548.34000	1.40000000E+1	
1548.828100	1.90000000E+1	
1549.316400	1.50000000E+1	
1549.804700	1.50000000E+1	
1550.293000	1.20000000E+1	
1550.781300	1.50000000E+1	
1551.27000	2.20000000E+1	
1551.757800	2.00000000E+1	
1552.246100	1.40000000E+1	
1552.734400	1.90000000E+1	
1553.222700	1.70000000E+1	
1553.710900	1.00000000E+1	
1554.199200	1.90000000E+1	
1554.687500	1.90000000E+1	
1555.175800	1.10000000E+1	
1555.664100	1.00000000E+1	
1556.152300	8.00000000E+0	
1556.640600	1.60000000E+1	
1557.128900	1.00000000E+1	
1557.617200	1.40000000E+1	
1558.105500	1.50000000E+1	
1558.593800	1.90000000E+1	
1559.082000	1.40000000E+1	
1559.57000	2.20000000E+1	
1560.058600	1.40000000E+1	
1560.546900	1.50000000E+1	
1561.035200	1.00000000E+1	
1561.523400	1.40000000E+1	
1562.011700	1.80000000E+1	
1562.5000	1.90000000E+1	
1562.988300	1.40000000E+1	
1563.476600	1.60000000E+1	
1563.964800	1.20000000E+1	
1564.453100	9.00000000E+0	
1564.941400	1.50000000E+1	
1565.43000	9.00000000E+0	
1565.918000	1.70000000E+1	
1566.406300	1.90000000E+1	
1566.894500	1.70000000E+1	
1567.382800	1.70000000E+1	
1567.871100	7.00000000E+0	
1568.359400	1.50000000E+1	
1568.847700	9.00000000E+0	
1569.335900	1.50000000E+1	
1569.824200	2.10000000E+1	
1570.312500	1.00000000E+1	
1570.800800	1.10000000E+1	
1571.289100	1.20000000E+1	
1571.777300	1.30000000E+1	
1572.265600	1.50000000E+1	
1572.753900	1.80000000E+1	
1573.242200	1.80000000E+1	
1573.73000	1.50000000E+1	
1574.218800	1.00000000E+1	
1574.707000	1.50000000E+1	
1575.195300	1.50000000E+1	
1575.683600	1.80000000E+1	
1576.171900	1.20000000E+1	
1576.66000	1.60000000E+1	
1577.148400	1.30000000E+1	
1577.636700	2.20000000E+1	
1578.125000	1.20000000E+1	
1578.613300	2.30000000E+1	
1579.101600	1.10000000E+1	
1579.59000	1.80000000E+1	
1580.078100	1.20000000E+1	
1580.566400	1.80000000E+1	
1581.054700	1.60000000E+1	
1581.543000	9.00000000E+0	
1582.031300	6.00000000E+0	
1582.52000	1.50000000E+1	
1583.007800	1.50000000E+1	
1583.496100	1.10000000E+1	
1583.984400	1.30000000E+1	
1584.472700	1.70000000E+1	
1584.960900	1.30000000E+1	
1585.449200	8.00000000E+0	
1585.937500	1.90000000E+1	
1586.425800	1.50000000E+1	
1586.914100	1.30000000E+1	
1587.402300	1.10000000E+1	
1587.890600	1.40000000E+1	
1588.378900	2.00000000E+1	
1588.867200	9.00000000E+0	
1589.355500	1.50000000E+1	
1589.843800	1.50000000E+1	
1590.332000	1.80000000E+1	
1590.82000	2.20000000E+1	
1591.308600	1.10000000E+1	
1591.796900	1.50000000E+1	
1592.285200	1.80000000E+1	
1592.773400	1.10000000E+1	
1593.261700	2.30000000E+1	
1593.75000	8.00000000E+0	
1594.238300	1.50000000E+1	
1594.726600	1.80000000E+1	
1595.214800	1.70000000E+1	
1595.703100	1.40000000E+1	
1596.191400	1.90000000E+1	
1596.68000	1.70000000E+1	
1597.168000	1.60000000E+1	
1597.656300	2.10000000E+1	
1598.144500	1.50000000E+1	
1598.632800	1.40000000E+1	
1599.121100	2.00000000E+1	
1599.609400	9.00000000E+0	
1600.097700	1.40000000E+1	
1600.585900	1.20000000E+1	
1601.074200	1.20000000E+1	
1601.562500	1.30000000E+1	
1602.050800	1.40000000E+1	
1602.539100	1.40000000E+1	
1603.027300	1.90000000E+1	
1603.515600	1.50000000E+1	
1604.003900	1.60000000E+1	
1604.492200	1.90000000E+1	
1604.98000	1.70000000E+1	
1605.468800	1.30000000E+1	
1605.957000	1.50000000E+1	
1606.445300	1.00000000E+1	
1606.933600	1.40000000E+1	
1607.421900	1.40000000E+1	
1607.91000	1.60000000E+1	
1608.398400	1.50000000E+1	
1608.886700	1.60000000E+1	
1609.375000	2.40000000E+1	
1609.863300	2.10000000E+1	
1610.351600	1.20000000E+1	
1610.84000	2.30000000E+1	
1611.328100	1.20000000E+1	
1611.816400	1.30000000E+1	
1612.304700	1.60000000E+1	
1612.793000	1.40000000E+1	
1613.281300	1.10000000E+1	
1613.77000	1.40000000E+1	
1614.257800	1.10000000E+1	
1614.746100	1.50000000E+1	
1615.234400	1.20000000E+1	
1615.722700	1.70000000E+1	
1616.210900	9.00000000E+0	
1616.699200	1.60000000E+1	
1617.187500	1.60000000E+1	
1617.675800	1.50000000E+1	
1618.164100	1.30000000E+1	
1618.652300	1.40000000E+1	
1619.140600	1.10000000E+1	
1619.628900	2.10000000E+1	
1620.117200	1.00000000E+1	
1620.605500	1.20000000E+1	
1621.093800	9.00000000E+0	
1621.582000	1.10000000E+1	
1622.07000	1.40000000E+1	
1622.558600	1.10000000E+1	
1623.046900	1.50000000E+1	
1623.535200	1.70000000E+1	
1624.023400	1.50000000E+1	
1624.511700	1.60000000E+1	
1625.000	1.40000000E+1	
1625.488300	1.00000000E+1	
1625.976600	9.00000000E+0	
1626.464800	1.10000000E+1	
1626.953100	1.10000000E+1	
1627.441400	1.60000000E+1	
1627.93000	1.70000000E+1	
1628.418000	8.00000000E+0	
1628.906300	8.00000000E+0	
1629.394500	1.30000000E+1	
1629.882800	9.00000000E+0	
1630.371100	1.30000000E+1	
1630.859400	1.20000000E+1	
1631.347700	1.20000000E+1	
1631.835900	1.70000000E+1	
1632.324200	1.20000000E+1	
1632.812500	1.00000000E+1	
1633.300800	1.50000000E+1	
1633.789100	1.60000000E+1	
1634.277300	1.50000000E+1	
1634.765600	8.00000000E+0	
1635.253900	8.00000000E+0	
1635.742200	1.60000000E+1	
1636.23000	1.00000000E+1	
1636.718800	1.90000000E+1	
1637.207000	8.00000000E+0	
1637.695300	1.30000000E+1	
1638.183600	1.00000000E+1	
1638.671900	1.30000000E+1	
1639.16000	1.60000000E+1	
1639.648400	1.50000000E+1	
1640.136700	1.50000000E+1	
1640.625000	1.70000000E+1	
1641.113300	1.60000000E+1	
1641.601600	1.40000000E+1	
1642.09000	1.60000000E+1	
1642.578100	1.00000000E+1	
1643.066400	1.80000000E+1	
1643.554700	1.40000000E+1	
1644.043000	1.70000000E+1	
1644.531300	1.60000000E+1	
1645.02000	1.90000000E+1	
1645.507800	1.10000000E+1	
1645.996100	1.60000000E+1	
1646.484400	1.50000000E+1	
1646.972700	1.80000000E+1	
1647.460900	1.60000000E+1	
1647.949200	1.30000000E+1	
1648.437500	2.10000000E+1	
1648.925800	9.00000000E+0	
1649.414100	1.40000000E+1	
1649.902300	8.00000000E+0	
1650.390600	1.30000000E+1	
1650.878900	1.30000000E+1	
1651.367200	1.50000000E+1	
1651.855500	1.40000000E+1	
1652.343800	9.00000000E+0	
1652.832000	1.70000000E+1	
1653.32000	1.40000000E+1	
1653.808600	1.50000000E+1	
1654.296900	1.20000000E+1	
1654.785200	1.60000000E+1	
1655.273400	1.50000000E+1	
1655.761700	1.10000000E+1	
1656.25000	1.20000000E+1	
1656.738300	1.90000000E+1	
1657.226600	1.20000000E+1	
1657.714800	2.00000000E+1	
1658.203100	1.30000000E+1	
1658.691400	7.00000000E+0	
1659.18000	1.30000000E+1	
1659.668000	1.20000000E+1	
1660.156300	1.10000000E+1	
1660.644500	1.30000000E+1	
1661.132800	1.10000000E+1	
1661.621100	1.10000000E+1	
1662.109400	1.20000000E+1	
1662.597700	1.50000000E+1	
1663.085900	1.60000000E+1	
1663.574200	1.30000000E+1	
1664.062500	1.60000000E+1	
1664.550800	1.40000000E+1	
1665.039100	1.20000000E+1	
1665.527300	1.20000000E+1	
1666.015600	2.10000000E+1	
1666.503900	1.40000000E+1	
1666.992200	1.50000000E+1	
1667.48000	1.80000000E+1	
1667.968800	1.00000000E+1	
1668.457000	1.00000000E+1	
1668.945300	1.10000000E+1	
1669.433600	1.60000000E+1	
1669.921900	1.30000000E+1	
1670.41000	1.40000000E+1	
1670.898400	1.50000000E+1	
1671.386700	1.70000000E+1	
1671.875000	1.90000000E+1	
1672.363300	1.40000000E+1	
1672.851600	1.10000000E+1	
1673.34000	1.10000000E+1	
1673.828100	1.00000000E+1	
1674.316400	1.10000000E+1	
1674.804700	1.00000000E+1	
1675.293000	1.20000000E+1	
1675.781300	1.30000000E+1	
1676.27000	8.00000000E+0	
1676.757800	1.30000000E+1	
1677.246100	1.10000000E+1	
1677.734400	9.00000000E+0	
1678.222700	2.30000000E+1	
1678.710900	1.50000000E+1	
1679.199200	1.90000000E+1	
1679.687500	1.80000000E+1	
1680.175800	1.60000000E+1	
1680.664100	1.80000000E+1	
1681.152300	1.50000000E+1	
1681.640600	1.20000000E+1	
1682.128900	1.30000000E+1	
1682.617200	1.10000000E+1	
1683.105500	9.00000000E+0	
1683.593800	1.50000000E+1	
1684.082000	1.50000000E+1	
1684.57000	1.60000000E+1	
1685.058600	1.10000000E+1	
1685.546900	1.20000000E+1	
1686.035200	1.10000000E+1	
1686.523400	1.50000000E+1	
1687.011700	1.20000000E+1	
1687.5000	1.20000000E+1	
1687.988300	8.00000000E+0	
1688.476600	1.50000000E+1	
1688.964800	1.20000000E+1	
1689.453100	9.00000000E+0	
1689.941400	1.20000000E+1	
1690.43000	1.30000000E+1	
1690.918000	1.20000000E+1	
1691.406300	1.80000000E+1	
1691.894500	1.50000000E+1	
1692.382800	1.60000000E+1	
1692.871100	1.40000000E+1	
1693.359400	1.00000000E+1	
1693.847700	1.50000000E+1	
1694.335900	1.20000000E+1	
1694.824200	1.30000000E+1	
1695.312500	9.00000000E+0	
1695.800800	1.70000000E+1	
1696.289100	1.90000000E+1	
1696.777300	2.00000000E+1	
1697.265600	1.60000000E+1	
1697.753900	1.80000000E+1	
1698.242200	8.00000000E+0	
1698.73000	9.00000000E+0	
1699.218800	1.60000000E+1	
1699.707000	1.30000000E+1	
1700.195300	1.90000000E+1	
1700.683600	2.00000000E+1	
1701.171900	1.20000000E+1	
1701.66000	9.00000000E+0	
1702.148400	7.00000000E+0	
1702.636700	1.10000000E+1	
1703.125000	9.00000000E+0	
1703.613300	1.10000000E+1	
1704.101600	1.50000000E+1	
1704.59000	1.60000000E+1	
1705.078100	1.10000000E+1	
1705.566400	2.10000000E+1	
1706.054700	1.40000000E+1	
1706.543000	1.90000000E+1	
1707.031300	9.00000000E+0	
1707.52000	1.10000000E+1	
1708.007800	8.00000000E+0	
1708.496100	1.50000000E+1	
1708.984400	9.00000000E+0	
1709.472700	1.00000000E+1	
1709.960900	1.70000000E+1	
1710.449200	1.50000000E+1	
1710.937500	1.10000000E+1	
1711.425800	1.50000000E+1	
1711.914100	1.60000000E+1	
1712.402300	1.60000000E+1	
1712.890600	1.80000000E+1	
1713.378900	1.00000000E+1	
1713.867200	1.50000000E+1	
1714.355500	1.40000000E+1	
1714.843800	1.00000000E+1	
1715.332000	1.20000000E+1	
1715.82000	1.20000000E+1	
1716.308600	1.90000000E+1	
1716.796900	1.60000000E+1	
1717.285200	1.30000000E+1	
1717.773400	9.00000000E+0	
1718.261700	1.00000000E+1	
1718.75000	7.00000000E+0	
1719.238300	2.10000000E+1	
1719.726600	2.00000000E+1	
1720.214800	1.50000000E+1	
1720.703100	1.20000000E+1	
1721.191400	1.40000000E+1	
1721.68000	1.70000000E+1	
1722.168000	1.40000000E+1	
1722.656300	1.20000000E+1	
1723.144500	1.10000000E+1	
1723.632800	1.20000000E+1	
1724.121100	1.40000000E+1	
1724.609400	8.00000000E+0	
1725.097700	1.20000000E+1	
1725.585900	1.40000000E+1	
1726.074200	1.40000000E+1	
1726.562500	1.30000000E+1	
1727.050800	1.50000000E+1	
1727.539100	1.90000000E+1	
1728.027300	1.20000000E+1	
1728.515600	1.30000000E+1	
1729.003900	9.00000000E+0	
1729.492200	1.80000000E+1	
1729.98000	1.50000000E+1	
1730.468800	1.10000000E+1	
1730.957000	1.00000000E+1	
1731.445300	1.50000000E+1	
1731.933600	7.00000000E+0	
1732.421900	1.40000000E+1	
1732.91000	2.20000000E+1	
1733.398400	1.50000000E+1	
1733.886700	1.40000000E+1	
1734.375000	1.20000000E+1	
1734.863300	2.20000000E+1	
1735.351600	1.60000000E+1	
1735.84000	1.40000000E+1	
1736.328100	1.20000000E+1	
1736.816400	8.00000000E+0	
1737.304700	2.00000000E+1	
1737.793000	1.60000000E+1	
1738.281300	1.70000000E+1	
1738.77000	1.30000000E+1	
1739.257800	1.50000000E+1	
1739.746100	1.00000000E+1	
1740.234400	1.90000000E+1	
1740.722700	1.00000000E+1	
1741.210900	1.80000000E+1	
1741.699200	1.30000000E+1	
1742.187500	1.30000000E+1	
1742.675800	1.50000000E+1	
1743.164100	1.40000000E+1	
1743.652300	1.90000000E+1	
1744.140600	1.20000000E+1	
1744.628900	8.00000000E+0	
1745.117200	1.30000000E+1	
1745.605500	1.20000000E+1	
1746.093800	1.80000000E+1	
1746.582000	1.30000000E+1	
1747.07000	9.00000000E+0	
1747.558600	1.40000000E+1	
1748.046900	1.40000000E+1	
1748.535200	1.50000000E+1	
1749.023400	1.10000000E+1	
1749.511700	1.60000000E+1	
1750.00	1.60000000E+1	
1750.488300	1.50000000E+1	
1750.976600	1.60000000E+1	
1751.464800	1.40000000E+1	
1751.953100	1.40000000E+1	
1752.441400	8.00000000E+0	
1752.93000	9.00000000E+0	
1753.418000	1.40000000E+1	
1753.906300	1.40000000E+1	
1754.394500	1.10000000E+1	
1754.882800	1.00000000E+1	
1755.371100	1.70000000E+1	
1755.859400	1.40000000E+1	
1756.347700	1.60000000E+1	
1756.835900	1.10000000E+1	
1757.324200	1.40000000E+1	
1757.812500	1.30000000E+1	
1758.300800	8.00000000E+0	
1758.789100	1.10000000E+1	
1759.277300	9.00000000E+0	
1759.765600	2.20000000E+1	
1760.253900	1.30000000E+1	
1760.742200	2.10000000E+1	
1761.23000	2.20000000E+1	
1761.718800	1.00000000E+1	
1762.207000	1.20000000E+1	
1762.695300	1.40000000E+1	
1763.183600	1.60000000E+1	
1763.671900	1.60000000E+1	
1764.16000	2.10000000E+1	
1764.648400	1.30000000E+1	
1765.136700	1.20000000E+1	
1765.625000	1.20000000E+1	
1766.113300	1.90000000E+1	
1766.601600	6.00000000E+0	
1767.09000	1.30000000E+1	
1767.578100	7.00000000E+0	
1768.066400	1.20000000E+1	
1768.554700	9.00000000E+0	
1769.043000	5.00000000E+0	
1769.531300	9.00000000E+0	
1770.02000	1.00000000E+1	
1770.507800	1.00000000E+1	
1770.996100	1.30000000E+1	
1771.484400	1.20000000E+1	
1771.972700	1.40000000E+1	
1772.460900	1.30000000E+1	
1772.949200	1.20000000E+1	
1773.437500	1.40000000E+1	
1773.925800	2.00000000E+1	
1774.414100	8.00000000E+0	
1774.902300	1.50000000E+1	
1775.390600	1.40000000E+1	
1775.878900	1.30000000E+1	
1776.367200	1.40000000E+1	
1776.855500	1.30000000E+1	
1777.343800	1.10000000E+1	
1777.832000	1.00000000E+1	
1778.32000	6.00000000E+0	
1778.808600	1.30000000E+1	
1779.296900	1.70000000E+1	
1779.785200	1.40000000E+1	
1780.273400	1.00000000E+1	
1780.761700	1.20000000E+1	
1781.25000	1.10000000E+1	
1781.738300	9.00000000E+0	
1782.226600	1.70000000E+1	
1782.714800	1.20000000E+1	
1783.203100	1.30000000E+1	
1783.691400	7.00000000E+0	
1784.18000	1.40000000E+1	
1784.668000	1.10000000E+1	
1785.156300	1.20000000E+1	
1785.644500	1.60000000E+1	
1786.132800	1.40000000E+1	
1786.621100	1.80000000E+1	
1787.109400	8.00000000E+0	
1787.597700	1.40000000E+1	
1788.085900	1.50000000E+1	
1788.574200	1.00000000E+1	
1789.062500	1.70000000E+1	
1789.550800	9.00000000E+0	
1790.039100	9.00000000E+0	
1790.527300	1.10000000E+1	
1791.015600	1.90000000E+1	
1791.503900	1.20000000E+1	
1791.992200	1.00000000E+1	
1792.48000	6.00000000E+0	
1792.968800	1.80000000E+1	
1793.457000	1.40000000E+1	
1793.945300	1.60000000E+1	
1794.433600	1.10000000E+1	
1794.921900	1.50000000E+1	
1795.41000	1.10000000E+1	
1795.898400	1.70000000E+1	
1796.386700	1.10000000E+1	
1796.875000	1.40000000E+1	
1797.363300	1.70000000E+1	
1797.851600	1.20000000E+1	
1798.34000	9.00000000E+0	
1798.828100	1.30000000E+1	
1799.316400	1.00000000E+1	
1799.804700	1.50000000E+1	
1800.293000	1.90000000E+1	
1800.781300	1.50000000E+1	
1801.27000	1.10000000E+1	
1801.757800	1.60000000E+1	
1802.246100	1.00000000E+1	
1802.734400	1.30000000E+1	
1803.222700	1.60000000E+1	
1803.710900	1.50000000E+1	
1804.199200	1.00000000E+1	
1804.687500	2.20000000E+1	
1805.175800	1.10000000E+1	
1805.664100	1.20000000E+1	
1806.152300	1.00000000E+1	
1806.640600	1.20000000E+1	
1807.128900	1.60000000E+1	
1807.617200	1.40000000E+1	
1808.105500	2.00000000E+1	
1808.593800	1.30000000E+1	
1809.082000	8.00000000E+0	
1809.57000	1.40000000E+1	
1810.058600	1.60000000E+1	
1810.546900	1.20000000E+1	
1811.035200	1.30000000E+1	
1811.523400	1.80000000E+1	
1812.011700	1.00000000E+1	
1812.5000	9.00000000E+0	
1812.988300	1.50000000E+1	
1813.476600	1.00000000E+1	
1813.964800	1.10000000E+1	
1814.453100	1.30000000E+1	
1814.941400	1.30000000E+1	
1815.43000	9.00000000E+0	
1815.918000	1.20000000E+1	
1816.406300	1.20000000E+1	
1816.894500	2.30000000E+1	
1817.382800	7.00000000E+0	
1817.871100	1.40000000E+1	
1818.359400	9.00000000E+0	
1818.847700	1.50000000E+1	
1819.335900	1.80000000E+1	
1819.824200	8.00000000E+0	
1820.312500	1.10000000E+1	
1820.800800	1.90000000E+1	
1821.289100	1.00000000E+1	
1821.777300	2.10000000E+1	
1822.265600	1.90000000E+1	
1822.753900	1.90000000E+1	
1823.242200	1.90000000E+1	
1823.73000	1.50000000E+1	
1824.218800	7.00000000E+0	
1824.707000	1.70000000E+1	
1825.195300	1.70000000E+1	
1825.683600	1.30000000E+1	
1826.171900	1.60000000E+1	
1826.66000	1.50000000E+1	
1827.148400	1.70000000E+1	
1827.636700	9.00000000E+0	
1828.125000	1.00000000E+1	
1828.613300	1.50000000E+1	
1829.101600	1.30000000E+1	
1829.59000	9.00000000E+0	
1830.078100	1.30000000E+1	
1830.566400	1.30000000E+1	
1831.054700	8.00000000E+0	
1831.543000	8.00000000E+0	
1832.031300	1.50000000E+1	
1832.52000	1.30000000E+1	
1833.007800	1.50000000E+1	
1833.496100	1.10000000E+1	
1833.984400	9.00000000E+0	
1834.472700	1.10000000E+1	
1834.960900	1.10000000E+1	
1835.449200	7.00000000E+0	
1835.937500	1.50000000E+1	
1836.425800	1.10000000E+1	
1836.914100	1.30000000E+1	
1837.402300	1.00000000E+1	
1837.890600	2.70000000E+1	
1838.378900	1.30000000E+1	
1838.867200	1.00000000E+1	
1839.355500	1.80000000E+1	
1839.843800	7.00000000E+0	
1840.332000	9.00000000E+0	
1840.82000	1.20000000E+1	
1841.308600	1.30000000E+1	
1841.796900	1.10000000E+1	
1842.285200	1.20000000E+1	
1842.773400	1.00000000E+1	
1843.261700	1.30000000E+1	
1843.75000	1.40000000E+1	
1844.238300	2.20000000E+1	
1844.726600	1.00000000E+1	
1845.214800	1.20000000E+1	
1845.703100	1.20000000E+1	
1846.191400	1.30000000E+1	
1846.68000	8.00000000E+0	
1847.168000	1.20000000E+1	
1847.656300	1.60000000E+1	
1848.144500	1.00000000E+1	
1848.632800	7.00000000E+0	
1849.121100	1.30000000E+1	
1849.609400	9.00000000E+0	
1850.097700	1.20000000E+1	
1850.585900	1.10000000E+1	
1851.074200	1.20000000E+1	
1851.562500	9.00000000E+0	
1852.050800	1.50000000E+1	
1852.539100	1.90000000E+1	
1853.027300	1.80000000E+1	
1853.515600	8.00000000E+0	
1854.003900	9.00000000E+0	
1854.492200	1.80000000E+1	
1854.98000	1.10000000E+1	
1855.468800	1.20000000E+1	
1855.957000	7.00000000E+0	
1856.445300	7.00000000E+0	
1856.933600	1.20000000E+1	
1857.421900	1.00000000E+1	
1857.91000	1.00000000E+1	
1858.398400	9.00000000E+0	
1858.886700	1.40000000E+1	
1859.375000	9.00000000E+0	
1859.863300	1.10000000E+1	
1860.351600	1.60000000E+1	
1860.84000	2.00000000E+1	
1861.328100	9.00000000E+0	
1861.816400	1.10000000E+1	
1862.304700	1.30000000E+1	
1862.793000	1.30000000E+1	
1863.281300	2.00000000E+1	
1863.77000	8.00000000E+0	
1864.257800	1.10000000E+1	
1864.746100	1.40000000E+1	
1865.234400	2.10000000E+1	
1865.722700	1.20000000E+1	
1866.210900	1.70000000E+1	
1866.699200	1.40000000E+1	
1867.187500	2.00000000E+1	
1867.675800	2.00000000E+1	
1868.164100	8.00000000E+0	
1868.652300	8.00000000E+0	
1869.140600	1.00000000E+1	
1869.628900	1.00000000E+1	
1870.117200	1.30000000E+1	
1870.605500	1.20000000E+1	
1871.093800	9.00000000E+0	
1871.582000	1.00000000E+1	
1872.07000	1.30000000E+1	
1872.558600	1.80000000E+1	
1873.046900	9.00000000E+0	
1873.535200	1.00000000E+1	
1874.023400	7.00000000E+0	
1874.511700	2.20000000E+1	
1875.000	8.00000000E+0	
1875.488300	1.30000000E+1	
1875.976600	2.00000000E+1	
1876.464800	1.40000000E+1	
1876.953100	1.00000000E+1	
1877.441400	1.20000000E+1	
1877.93000	1.70000000E+1	
1878.418000	7.00000000E+0	
1878.906300	1.50000000E+1	
1879.394500	1.80000000E+1	
1879.882800	1.90000000E+1	
1880.371100	1.10000000E+1	
1880.859400	1.40000000E+1	
1881.347700	9.00000000E+0	
1881.835900	6.00000000E+0	
1882.324200	1.10000000E+1	
1882.812500	1.10000000E+1	
1883.300800	1.50000000E+1	
1883.789100	1.20000000E+1	
1884.277300	1.30000000E+1	
1884.765600	1.20000000E+1	
1885.253900	2.00000000E+1	
1885.742200	6.00000000E+0	
1886.23000	1.50000000E+1	
1886.718800	1.20000000E+1	
1887.207000	1.00000000E+1	
1887.695300	1.40000000E+1	
1888.183600	8.00000000E+0	
1888.671900	1.50000000E+1	
1889.16000	1.10000000E+1	
1889.648400	1.40000000E+1	
1890.136700	1.20000000E+1	
1890.625000	1.10000000E+1	
1891.113300	1.20000000E+1	
1891.601600	2.00000000E+1	
1892.09000	1.30000000E+1	
1892.578100	1.60000000E+1	
1893.066400	1.10000000E+1	
1893.554700	1.40000000E+1	
1894.043000	1.40000000E+1	
1894.531300	1.80000000E+1	
1895.02000	1.00000000E+1	
1895.507800	1.50000000E+1	
1895.996100	1.90000000E+1	
1896.484400	1.10000000E+1	
1896.972700	1.20000000E+1	
1897.460900	1.60000000E+1	
1897.949200	1.80000000E+1	
1898.437500	1.50000000E+1	
1898.925800	2.30000000E+1	
1899.414100	1.50000000E+1	
1899.902300	8.00000000E+0	
1900.390600	9.00000000E+0	
1900.878900	6.00000000E+0	
1901.367200	1.60000000E+1	
1901.855500	1.30000000E+1	
1902.343800	1.30000000E+1	
1902.832000	1.10000000E+1	
1903.32000	8.00000000E+0	
1903.808600	1.90000000E+1	
1904.296900	1.20000000E+1	
1904.785200	5.00000000E+0	
1905.273400	1.70000000E+1	
1905.761700	1.40000000E+1	
1906.25000	6.00000000E+0	
1906.738300	1.80000000E+1	
1907.226600	2.00000000E+1	
1907.714800	1.10000000E+1	
1908.203100	1.90000000E+1	
1908.691400	1.80000000E+1	
1909.18000	1.50000000E+1	
1909.668000	1.40000000E+1	
1910.156300	1.20000000E+1	
1910.644500	1.00000000E+1	
1911.132800	6.00000000E+0	
1911.621100	1.80000000E+1	
1912.109400	1.70000000E+1	
1912.597700	1.00000000E+1	
1913.085900	1.20000000E+1	
1913.574200	1.40000000E+1	
1914.062500	8.00000000E+0	
1914.550800	1.10000000E+1	
1915.039100	1.90000000E+1	
1915.527300	1.50000000E+1	
1916.015600	1.00000000E+1	
1916.503900	1.40000000E+1	
1916.992200	1.40000000E+1	
1917.48000	1.10000000E+1	
1917.968800	9.00000000E+0	
1918.457000	1.40000000E+1	
1918.945300	1.20000000E+1	
1919.433600	1.00000000E+1	
1919.921900	1.10000000E+1	
1920.41000	1.10000000E+1	
1920.898400	1.20000000E+1	
1921.386700	1.40000000E+1	
1921.875000	1.70000000E+1	
1922.363300	1.30000000E+1	
1922.851600	1.90000000E+1	
1923.34000	7.00000000E+0	
1923.828100	1.50000000E+1	
1924.316400	1.70000000E+1	
1924.804700	1.50000000E+1	
1925.293000	1.10000000E+1	
1925.781300	8.00000000E+0	
1926.27000	1.10000000E+1	
1926.757800	1.70000000E+1	
1927.246100	8.00000000E+0	
1927.734400	1.00000000E+1	
1928.222700	1.40000000E+1	
1928.710900	1.00000000E+1	
1929.199200	1.60000000E+1	
1929.687500	1.50000000E+1	
1930.175800	1.50000000E+1	
1930.664100	1.50000000E+1	
1931.152300	9.00000000E+0	
1931.640600	1.40000000E+1	
1932.128900	8.00000000E+0	
1932.617200	1.40000000E+1	
1933.105500	1.20000000E+1	
1933.593800	1.00000000E+1	
1934.082000	1.80000000E+1	
1934.57000	1.80000000E+1	
1935.058600	1.10000000E+1	
1935.546900	3.00000000E+0	
1936.035200	1.30000000E+1	
1936.523400	2.00000000E+1	
1937.011700	1.00000000E+1	
1937.5000	1.40000000E+1	
1937.988300	1.30000000E+1	
1938.476600	1.40000000E+1	
1938.964800	8.00000000E+0	
1939.453100	1.20000000E+1	
1939.941400	1.10000000E+1	
1940.43000	1.60000000E+1	
1940.918000	1.00000000E+1	
1941.406300	1.30000000E+1	
1941.894500	1.30000000E+1	
1942.382800	1.10000000E+1	
1942.871100	1.50000000E+1	
1943.359400	8.00000000E+0	
1943.847700	1.60000000E+1	
1944.335900	1.20000000E+1	
1944.824200	8.00000000E+0	
1945.312500	1.50000000E+1	
1945.800800	1.10000000E+1	
1946.289100	9.00000000E+0	
1946.777300	1.20000000E+1	
1947.265600	1.10000000E+1	
1947.753900	1.00000000E+1	
1948.242200	9.00000000E+0	
1948.73000	1.00000000E+1	
1949.218800	9.00000000E+0	
1949.707000	8.00000000E+0	
1950.195300	1.50000000E+1	
1950.683600	1.20000000E+1	
1951.171900	1.40000000E+1	
1951.66000	1.00000000E+1	
1952.148400	1.10000000E+1	
1952.636700	1.00000000E+1	
1953.125000	1.20000000E+1	
1953.613300	1.10000000E+1	
1954.101600	1.10000000E+1	
1954.59000	2.00000000E+1	
1955.078100	1.40000000E+1	
1955.566400	1.60000000E+1	
1956.054700	1.10000000E+1	
1956.543000	1.40000000E+1	
1957.031300	4.00000000E+0	
1957.52000	2.00000000E+1	
1958.007800	1.50000000E+1	
1958.496100	2.10000000E+1	
1958.984400	1.50000000E+1	
1959.472700	8.00000000E+0	
1959.960900	1.50000000E+1	
1960.449200	1.20000000E+1	
1960.937500	1.00000000E+1	
1961.425800	1.40000000E+1	
1961.914100	1.20000000E+1	
1962.402300	8.00000000E+0	
1962.890600	5.00000000E+0	
1963.378900	8.00000000E+0	
1963.867200	9.00000000E+0	
1964.355500	1.40000000E+1	
1964.843800	1.30000000E+1	
1965.332000	1.70000000E+1	
1965.82000	1.00000000E+1	
1966.308600	1.10000000E+1	
1966.796900	1.70000000E+1	
1967.285200	9.00000000E+0	
1967.773400	1.40000000E+1	
1968.261700	1.00000000E+1	
1968.75000	1.70000000E+1	
1969.238300	1.10000000E+1	
1969.726600	6.00000000E+0	
1970.214800	1.20000000E+1	
1970.703100	1.30000000E+1	
1971.191400	1.30000000E+1	
1971.68000	1.30000000E+1	
1972.168000	1.10000000E+1	
1972.656300	2.10000000E+1	
1973.144500	1.20000000E+1	
1973.632800	1.40000000E+1	
1974.121100	1.30000000E+1	
1974.609400	1.40000000E+1	
1975.097700	1.00000000E+1	
1975.585900	1.30000000E+1	
1976.074200	1.20000000E+1	
1976.562500	1.20000000E+1	
1977.050800	1.00000000E+1	
1977.539100	1.10000000E+1	
1978.027300	1.60000000E+1	
1978.515600	1.10000000E+1	
1979.003900	1.40000000E+1	
1979.492200	1.40000000E+1	
1979.98000	8.00000000E+0	
1980.468800	8.00000000E+0	
1980.957000	1.10000000E+1	
1981.445300	1.30000000E+1	
1981.933600	7.00000000E+0	
1982.421900	1.60000000E+1	
1982.91000	1.60000000E+1	
1983.398400	1.00000000E+1	
1983.886700	2.00000000E+1	
1984.375000	8.00000000E+0	
1984.863300	1.10000000E+1	
1985.351600	1.30000000E+1	
1985.84000	4.00000000E+0	
1986.328100	9.00000000E+0	
1986.816400	9.00000000E+0	
1987.304700	1.80000000E+1	
1987.793000	1.20000000E+1	
1988.281300	1.60000000E+1	
1988.77000	1.90000000E+1	
1989.257800	9.00000000E+0	
1989.746100	7.00000000E+0	
1990.234400	1.00000000E+1	
1990.722700	1.90000000E+1	
1991.210900	1.50000000E+1	
1991.699200	1.20000000E+1	
1992.187500	9.00000000E+0	
1992.675800	1.50000000E+1	
1993.164100	1.10000000E+1	
1993.652300	1.20000000E+1	
1994.140600	1.10000000E+1	
1994.628900	1.70000000E+1	
1995.117200	1.00000000E+1	
1995.605500	1.70000000E+1	
1996.093800	9.00000000E+0	
1996.582000	5.00000000E+0	
1997.07000	1.10000000E+1	
1997.558600	2.00000000E+1	
1998.046900	1.40000000E+1	
1998.535200	9.00000000E+0	
1999.023400	1.20000000E+1	
1999.511700	1.90000000E+1	
