Labels	APTMS_500kHz_0	
Type	Time Scan	
Comment		
Start	0.00	
Stop	1999.511700	
Step	0.48828125	
Fixed/Offset	 	
XAxis	Time(ns)	
YAxis	Counts	

0.00	0.00000000E+0	
0.48828125	0.00000000E+0	
0.97656250	0.00000000E+0	
1.4648438	0.00000000E+0	
1.9531250	0.00000000E+0	
2.4414063	0.00000000E+0	
2.9296875	0.00000000E+0	
3.4179688	0.00000000E+0	
3.906250	0.00000000E+0	
4.3945313	0.00000000E+0	
4.8828125	0.00000000E+0	
5.3710938	0.00000000E+0	
5.8593750	0.00000000E+0	
6.3476563	0.00000000E+0	
6.8359375	0.00000000E+0	
7.3242188	0.00000000E+0	
7.81250	0.00000000E+0	
8.3007813	0.00000000E+0	
8.7890625	0.00000000E+0	
9.2773438	0.00000000E+0	
9.7656250	0.00000000E+0	
10.253906	0.00000000E+0	
10.742188	0.00000000E+0	
11.230469	0.00000000E+0	
11.718750	0.00000000E+0	
12.207031	0.00000000E+0	
12.695313	0.00000000E+0	
13.183594	0.00000000E+0	
13.671875	0.00000000E+0	
14.160156	0.00000000E+0	
14.648438	0.00000000E+0	
15.136719	0.00000000E+0	
15.6250	0.00000000E+0	
16.113281	0.00000000E+0	
16.601563	0.00000000E+0	
17.089844	0.00000000E+0	
17.578125	0.00000000E+0	
18.066406	0.00000000E+0	
18.554688	0.00000000E+0	
19.042969	0.00000000E+0	
19.531250	0.00000000E+0	
20.019531	0.00000000E+0	
20.507813	0.00000000E+0	
20.996094	0.00000000E+0	
21.484375	0.00000000E+0	
21.972656	0.00000000E+0	
22.460938	0.00000000E+0	
22.949219	0.00000000E+0	
23.43750	0.00000000E+0	
23.925781	0.00000000E+0	
24.414063	0.00000000E+0	
24.902344	0.00000000E+0	
25.390625	0.00000000E+0	
25.878906	0.00000000E+0	
26.367188	0.00000000E+0	
26.855469	0.00000000E+0	
27.343750	0.00000000E+0	
27.832031	0.00000000E+0	
28.320313	0.00000000E+0	
28.808594	0.00000000E+0	
29.296875	0.00000000E+0	
29.785156	0.00000000E+0	
30.273438	0.00000000E+0	
30.761719	0.00000000E+0	
31.250	0.00000000E+0	
31.738281	0.00000000E+0	
32.226563	0.00000000E+0	
32.714844	0.00000000E+0	
33.203125	0.00000000E+0	
33.691406	0.00000000E+0	
34.179688	0.00000000E+0	
34.667969	0.00000000E+0	
35.156250	0.00000000E+0	
35.644531	0.00000000E+0	
36.132813	0.00000000E+0	
36.621094	0.00000000E+0	
37.109375	0.00000000E+0	
37.597656	0.00000000E+0	
38.085938	0.00000000E+0	
38.574219	0.00000000E+0	
39.06250	0.00000000E+0	
39.550781	0.00000000E+0	
40.039063	0.00000000E+0	
40.527344	0.00000000E+0	
41.015625	0.00000000E+0	
41.503906	9.00000000E+0	
41.992188	3.30000000E+1	
42.480469	3.60000000E+1	
42.968750	3.60000000E+1	
43.457031	2.10000000E+1	
43.945313	2.90000000E+1	
44.433594	3.50000000E+1	
44.921875	3.70000000E+1	
45.410156	2.20000000E+1	
45.898438	3.40000000E+1	
46.386719	2.30000000E+1	
46.8750	2.30000000E+1	
47.363281	2.30000000E+1	
47.851563	2.10000000E+1	
48.339844	2.80000000E+1	
48.828125	2.30000000E+1	
49.316406	1.80000000E+1	
49.804688	2.50000000E+1	
50.292969	2.40000000E+1	
50.781250	2.20000000E+1	
51.269531	2.40000000E+1	
51.757813	3.10000000E+1	
52.246094	3.30000000E+1	
52.734375	2.10000000E+1	
53.222656	2.60000000E+1	
53.710938	2.50000000E+1	
54.199219	3.50000000E+1	
54.68750	2.40000000E+1	
55.175781	2.40000000E+1	
55.664063	2.10000000E+1	
56.152344	1.70000000E+1	
56.640625	3.20000000E+1	
57.128906	2.50000000E+1	
57.617188	1.90000000E+1	
58.105469	3.20000000E+1	
58.593750	2.60000000E+1	
59.082031	2.90000000E+1	
59.570313	2.70000000E+1	
60.058594	2.00000000E+1	
60.546875	2.70000000E+1	
61.035156	4.50000000E+1	
61.523438	8.70000000E+1	
62.011719	1.67000000E+2	
62.50	2.28000000E+2	
62.988281	2.58000000E+2	
63.476563	2.80000000E+2	
63.964844	2.57000000E+2	
64.453125	2.64000000E+2	
64.941406	2.35000000E+2	
65.429688	2.47000000E+2	
65.917969	2.42000000E+2	
66.406250	2.33000000E+2	
66.894531	2.32000000E+2	
67.382813	2.42000000E+2	
67.871094	2.25000000E+2	
68.359375	2.32000000E+2	
68.847656	2.06000000E+2	
69.335938	2.24000000E+2	
69.824219	2.61000000E+2	
70.31250	2.15000000E+2	
70.800781	2.03000000E+2	
71.289063	2.10000000E+2	
71.777344	2.08000000E+2	
72.265625	2.13000000E+2	
72.753906	2.16000000E+2	
73.242188	1.85000000E+2	
73.730469	1.81000000E+2	
74.218750	1.92000000E+2	
74.707031	1.88000000E+2	
75.195313	2.08000000E+2	
75.683594	2.01000000E+2	
76.171875	2.42000000E+2	
76.660156	1.94000000E+2	
77.148438	1.95000000E+2	
77.636719	1.87000000E+2	
78.1250	1.87000000E+2	
78.613281	2.06000000E+2	
79.101563	1.93000000E+2	
79.589844	2.04000000E+2	
80.078125	1.89000000E+2	
80.566406	1.89000000E+2	
81.054688	1.75000000E+2	
81.542969	1.72000000E+2	
82.031250	1.83000000E+2	
82.519531	1.92000000E+2	
83.007813	1.80000000E+2	
83.496094	1.71000000E+2	
83.984375	2.28000000E+2	
84.472656	1.97000000E+2	
84.960938	1.87000000E+2	
85.449219	1.63000000E+2	
85.93750	1.69000000E+2	
86.425781	1.66000000E+2	
86.914063	1.76000000E+2	
87.402344	1.61000000E+2	
87.890625	1.63000000E+2	
88.378906	2.03000000E+2	
88.867188	1.95000000E+2	
89.355469	1.92000000E+2	
89.843750	1.46000000E+2	
90.332031	1.93000000E+2	
90.820313	1.93000000E+2	
91.308594	1.62000000E+2	
91.796875	1.84000000E+2	
92.285156	1.65000000E+2	
92.773438	1.66000000E+2	
93.261719	1.88000000E+2	
93.750	1.59000000E+2	
94.238281	1.85000000E+2	
94.726563	1.99000000E+2	
95.214844	1.69000000E+2	
95.703125	1.72000000E+2	
96.191406	1.74000000E+2	
96.679688	1.67000000E+2	
97.167969	1.53000000E+2	
97.656250	1.66000000E+2	
98.144531	1.65000000E+2	
98.632813	1.69000000E+2	
99.121094	1.76000000E+2	
99.609375	1.84000000E+2	
100.097660	1.66000000E+2	
100.585940	1.55000000E+2	
101.074220	1.77000000E+2	
101.562500	1.59000000E+2	
102.050780	1.49000000E+2	
102.539060	1.80000000E+2	
103.027340	1.69000000E+2	
103.515630	1.61000000E+2	
104.003910	1.68000000E+2	
104.492190	1.60000000E+2	
104.980470	1.79000000E+2	
105.468750	1.61000000E+2	
105.95700	1.84000000E+2	
106.445310	1.79000000E+2	
106.933590	1.54000000E+2	
107.421880	1.49000000E+2	
107.910160	1.43000000E+2	
108.398440	1.56000000E+2	
108.886720	1.55000000E+2	
109.37500	1.50000000E+2	
109.863280	1.65000000E+2	
110.351560	1.48000000E+2	
110.839840	1.75000000E+2	
111.328130	1.52000000E+2	
111.816410	1.78000000E+2	
112.304690	1.40000000E+2	
112.79300	1.60000000E+2	
113.281250	1.52000000E+2	
113.769530	1.71000000E+2	
114.257810	1.43000000E+2	
114.746090	1.43000000E+2	
115.234380	1.63000000E+2	
115.722660	1.50000000E+2	
116.210940	1.54000000E+2	
116.699220	1.43000000E+2	
117.187500	1.32000000E+2	
117.675780	1.65000000E+2	
118.164060	1.48000000E+2	
118.652340	1.65000000E+2	
119.140630	1.41000000E+2	
119.628910	1.58000000E+2	
120.117190	1.46000000E+2	
120.605470	1.69000000E+2	
121.093750	1.50000000E+2	
121.58200	1.52000000E+2	
122.070310	1.62000000E+2	
122.558590	1.40000000E+2	
123.046880	1.61000000E+2	
123.535160	1.73000000E+2	
124.023440	1.59000000E+2	
124.511720	1.47000000E+2	
125.00	1.69000000E+2	
125.488280	1.30000000E+2	
125.976560	1.62000000E+2	
126.464840	1.57000000E+2	
126.953130	1.52000000E+2	
127.441410	1.63000000E+2	
127.929690	1.41000000E+2	
128.41800	1.54000000E+2	
128.906250	1.44000000E+2	
129.394530	1.37000000E+2	
129.882810	1.50000000E+2	
130.371090	1.77000000E+2	
130.859380	1.39000000E+2	
131.347660	1.43000000E+2	
131.835940	1.41000000E+2	
132.324220	1.73000000E+2	
132.812500	1.46000000E+2	
133.300780	1.62000000E+2	
133.789060	1.33000000E+2	
134.277340	1.52000000E+2	
134.765630	1.53000000E+2	
135.253910	1.26000000E+2	
135.742190	1.62000000E+2	
136.230470	1.31000000E+2	
136.718750	1.20000000E+2	
137.20700	1.57000000E+2	
137.695310	1.53000000E+2	
138.183590	1.46000000E+2	
138.671880	1.32000000E+2	
139.160160	1.42000000E+2	
139.648440	1.51000000E+2	
140.136720	1.36000000E+2	
140.62500	1.48000000E+2	
141.113280	1.43000000E+2	
141.601560	1.36000000E+2	
142.089840	1.47000000E+2	
142.578130	1.36000000E+2	
143.066410	1.64000000E+2	
143.554690	1.31000000E+2	
144.04300	1.37000000E+2	
144.531250	1.19000000E+2	
145.019530	1.44000000E+2	
145.507810	1.67000000E+2	
145.996090	1.22000000E+2	
146.484380	1.27000000E+2	
146.972660	1.71000000E+2	
147.460940	1.24000000E+2	
147.949220	1.35000000E+2	
148.437500	1.39000000E+2	
148.925780	1.47000000E+2	
149.414060	1.46000000E+2	
149.902340	1.45000000E+2	
150.390630	1.46000000E+2	
150.878910	1.33000000E+2	
151.367190	9.40000000E+1	
151.855470	1.31000000E+2	
152.343750	1.52000000E+2	
152.83200	1.48000000E+2	
153.320310	1.32000000E+2	
153.808590	1.34000000E+2	
154.296880	1.33000000E+2	
154.785160	1.47000000E+2	
155.273440	1.33000000E+2	
155.761720	1.49000000E+2	
156.2500	1.24000000E+2	
156.738280	1.52000000E+2	
157.226560	1.17000000E+2	
157.714840	1.13000000E+2	
158.203130	1.53000000E+2	
158.691410	1.57000000E+2	
159.179690	1.14000000E+2	
159.66800	1.26000000E+2	
160.156250	1.38000000E+2	
160.644530	1.36000000E+2	
161.132810	1.58000000E+2	
161.621090	1.27000000E+2	
162.109380	1.44000000E+2	
162.597660	1.40000000E+2	
163.085940	1.35000000E+2	
163.574220	1.26000000E+2	
164.062500	1.32000000E+2	
164.550780	1.55000000E+2	
165.039060	1.30000000E+2	
165.527340	1.33000000E+2	
166.015630	1.26000000E+2	
166.503910	1.38000000E+2	
166.992190	1.36000000E+2	
167.480470	1.54000000E+2	
167.968750	1.26000000E+2	
168.45700	1.32000000E+2	
168.945310	1.29000000E+2	
169.433590	1.27000000E+2	
169.921880	1.25000000E+2	
170.410160	1.39000000E+2	
170.898440	1.10000000E+2	
171.386720	1.25000000E+2	
171.87500	1.28000000E+2	
172.363280	1.26000000E+2	
172.851560	1.40000000E+2	
173.339840	1.66000000E+2	
173.828130	1.38000000E+2	
174.316410	1.47000000E+2	
174.804690	1.31000000E+2	
175.29300	1.65000000E+2	
175.781250	1.54000000E+2	
176.269530	1.03000000E+2	
176.757810	1.19000000E+2	
177.246090	1.33000000E+2	
177.734380	1.37000000E+2	
178.222660	1.32000000E+2	
178.710940	1.21000000E+2	
179.199220	1.19000000E+2	
179.687500	1.26000000E+2	
180.175780	1.35000000E+2	
180.664060	1.10000000E+2	
181.152340	1.36000000E+2	
181.640630	1.18000000E+2	
182.128910	1.44000000E+2	
182.617190	1.31000000E+2	
183.105470	1.24000000E+2	
183.593750	1.25000000E+2	
184.08200	1.30000000E+2	
184.570310	1.50000000E+2	
185.058590	1.45000000E+2	
185.546880	1.23000000E+2	
186.035160	1.42000000E+2	
186.523440	1.17000000E+2	
187.011720	1.38000000E+2	
187.500	1.14000000E+2	
187.988280	1.41000000E+2	
188.476560	1.41000000E+2	
188.964840	1.08000000E+2	
189.453130	1.16000000E+2	
189.941410	1.24000000E+2	
190.429690	1.40000000E+2	
190.91800	1.19000000E+2	
191.406250	1.43000000E+2	
191.894530	1.07000000E+2	
192.382810	1.23000000E+2	
192.871090	1.22000000E+2	
193.359380	1.20000000E+2	
193.847660	1.16000000E+2	
194.335940	1.50000000E+2	
194.824220	1.26000000E+2	
195.312500	1.30000000E+2	
195.800780	1.31000000E+2	
196.289060	1.12000000E+2	
196.777340	1.39000000E+2	
197.265630	1.31000000E+2	
197.753910	1.25000000E+2	
198.242190	1.36000000E+2	
198.730470	1.21000000E+2	
199.218750	1.22000000E+2	
199.70700	1.38000000E+2	
200.195310	1.23000000E+2	
200.683590	1.23000000E+2	
201.171880	1.12000000E+2	
201.660160	1.41000000E+2	
202.148440	1.21000000E+2	
202.636720	1.13000000E+2	
203.12500	1.29000000E+2	
203.613280	1.30000000E+2	
204.101560	1.23000000E+2	
204.589840	1.29000000E+2	
205.078130	1.19000000E+2	
205.566410	1.33000000E+2	
206.054690	1.02000000E+2	
206.54300	1.21000000E+2	
207.031250	1.34000000E+2	
207.519530	1.34000000E+2	
208.007810	1.10000000E+2	
208.496090	1.09000000E+2	
208.984380	1.08000000E+2	
209.472660	1.20000000E+2	
209.960940	1.05000000E+2	
210.449220	1.13000000E+2	
210.937500	9.60000000E+1	
211.425780	1.24000000E+2	
211.914060	1.10000000E+2	
212.402340	1.14000000E+2	
212.890630	1.16000000E+2	
213.378910	1.20000000E+2	
213.867190	1.37000000E+2	
214.355470	1.23000000E+2	
214.843750	1.23000000E+2	
215.33200	1.34000000E+2	
215.820310	1.35000000E+2	
216.308590	1.28000000E+2	
216.796880	1.20000000E+2	
217.285160	1.26000000E+2	
217.773440	1.36000000E+2	
218.261720	1.34000000E+2	
218.7500	1.23000000E+2	
219.238280	1.38000000E+2	
219.726560	1.30000000E+2	
220.214840	1.21000000E+2	
220.703130	1.43000000E+2	
221.191410	1.17000000E+2	
221.679690	1.21000000E+2	
222.16800	1.39000000E+2	
222.656250	1.07000000E+2	
223.144530	1.05000000E+2	
223.632810	1.30000000E+2	
224.121090	1.13000000E+2	
224.609380	1.24000000E+2	
225.097660	1.14000000E+2	
225.585940	1.03000000E+2	
226.074220	1.11000000E+2	
226.562500	1.04000000E+2	
227.050780	1.09000000E+2	
227.539060	1.13000000E+2	
228.027340	1.16000000E+2	
228.515630	1.17000000E+2	
229.003910	1.22000000E+2	
229.492190	1.22000000E+2	
229.980470	1.04000000E+2	
230.468750	1.26000000E+2	
230.95700	1.12000000E+2	
231.445310	1.26000000E+2	
231.933590	1.24000000E+2	
232.421880	1.24000000E+2	
232.910160	1.14000000E+2	
233.398440	1.16000000E+2	
233.886720	1.21000000E+2	
234.37500	1.04000000E+2	
234.863280	1.17000000E+2	
235.351560	9.90000000E+1	
235.839840	1.16000000E+2	
236.328130	1.20000000E+2	
236.816410	1.00000000E+2	
237.304690	1.42000000E+2	
237.79300	1.15000000E+2	
238.281250	1.25000000E+2	
238.769530	1.19000000E+2	
239.257810	1.29000000E+2	
239.746090	9.60000000E+1	
240.234380	1.16000000E+2	
240.722660	1.00000000E+2	
241.210940	1.14000000E+2	
241.699220	1.08000000E+2	
242.187500	1.22000000E+2	
242.675780	1.17000000E+2	
243.164060	1.10000000E+2	
243.652340	1.19000000E+2	
244.140630	1.27000000E+2	
244.628910	1.08000000E+2	
245.117190	1.14000000E+2	
245.605470	9.70000000E+1	
246.093750	1.13000000E+2	
246.58200	1.15000000E+2	
247.070310	1.23000000E+2	
247.558590	1.04000000E+2	
248.046880	1.25000000E+2	
248.535160	1.19000000E+2	
249.023440	1.15000000E+2	
249.511720	1.13000000E+2	
250.00	1.18000000E+2	
250.488280	1.15000000E+2	
250.976560	1.25000000E+2	
251.464840	1.01000000E+2	
251.953130	1.07000000E+2	
252.441410	1.20000000E+2	
252.929690	1.13000000E+2	
253.41800	1.23000000E+2	
253.906250	1.03000000E+2	
254.394530	9.50000000E+1	
254.882810	1.11000000E+2	
255.371090	1.17000000E+2	
255.859380	1.14000000E+2	
256.347660	1.07000000E+2	
256.835940	1.25000000E+2	
257.324220	1.34000000E+2	
257.812500	1.20000000E+2	
258.300780	1.16000000E+2	
258.789060	1.12000000E+2	
259.277340	1.17000000E+2	
259.765630	1.23000000E+2	
260.253910	1.22000000E+2	
260.742190	1.12000000E+2	
261.230470	1.15000000E+2	
261.718750	1.10000000E+2	
262.20700	1.16000000E+2	
262.695310	1.23000000E+2	
263.183590	1.04000000E+2	
263.671880	1.18000000E+2	
264.160160	1.12000000E+2	
264.648440	1.09000000E+2	
265.136720	1.17000000E+2	
265.62500	1.14000000E+2	
266.113280	1.15000000E+2	
266.601560	1.18000000E+2	
267.089840	9.90000000E+1	
267.578130	1.14000000E+2	
268.066410	1.33000000E+2	
268.554690	1.06000000E+2	
269.04300	1.07000000E+2	
269.531250	1.18000000E+2	
270.019530	1.07000000E+2	
270.507810	1.11000000E+2	
270.996090	9.80000000E+1	
271.484380	1.29000000E+2	
271.972660	9.20000000E+1	
272.460940	1.14000000E+2	
272.949220	1.14000000E+2	
273.437500	1.33000000E+2	
273.925780	1.29000000E+2	
274.414060	1.09000000E+2	
274.902340	1.23000000E+2	
275.390630	1.28000000E+2	
275.878910	9.20000000E+1	
276.367190	1.05000000E+2	
276.855470	1.10000000E+2	
277.343750	1.11000000E+2	
277.83200	1.19000000E+2	
278.320310	1.05000000E+2	
278.808590	1.18000000E+2	
279.296880	9.80000000E+1	
279.785160	1.04000000E+2	
280.273440	1.16000000E+2	
280.761720	1.03000000E+2	
281.2500	9.80000000E+1	
281.738280	1.05000000E+2	
282.226560	1.14000000E+2	
282.714840	1.02000000E+2	
283.203130	1.22000000E+2	
283.691410	1.22000000E+2	
284.179690	1.15000000E+2	
284.66800	1.41000000E+2	
285.156250	1.07000000E+2	
285.644530	1.11000000E+2	
286.132810	1.01000000E+2	
286.621090	8.90000000E+1	
287.109380	1.14000000E+2	
287.597660	1.03000000E+2	
288.085940	1.03000000E+2	
288.574220	1.09000000E+2	
289.062500	1.03000000E+2	
289.550780	1.20000000E+2	
290.039060	9.10000000E+1	
290.527340	1.13000000E+2	
291.015630	1.07000000E+2	
291.503910	1.19000000E+2	
291.992190	1.10000000E+2	
292.480470	1.13000000E+2	
292.968750	9.60000000E+1	
293.45700	1.21000000E+2	
293.945310	1.25000000E+2	
294.433590	1.28000000E+2	
294.921880	1.24000000E+2	
295.410160	9.20000000E+1	
295.898440	9.80000000E+1	
296.386720	8.90000000E+1	
296.87500	1.16000000E+2	
297.363280	1.05000000E+2	
297.851560	1.27000000E+2	
298.339840	1.03000000E+2	
298.828130	1.03000000E+2	
299.316410	1.07000000E+2	
299.804690	1.05000000E+2	
300.29300	1.01000000E+2	
300.781250	9.40000000E+1	
301.269530	1.12000000E+2	
301.757810	1.04000000E+2	
302.246090	1.24000000E+2	
302.734380	1.06000000E+2	
303.222660	9.80000000E+1	
303.710940	1.10000000E+2	
304.199220	1.20000000E+2	
304.687500	9.90000000E+1	
305.175780	8.70000000E+1	
305.664060	1.02000000E+2	
306.152340	1.08000000E+2	
306.640630	1.18000000E+2	
307.128910	1.10000000E+2	
307.617190	1.12000000E+2	
308.105470	9.60000000E+1	
308.593750	9.00000000E+1	
309.08200	9.70000000E+1	
309.570310	9.40000000E+1	
310.058590	1.08000000E+2	
310.546880	1.16000000E+2	
311.035160	1.12000000E+2	
311.523440	1.15000000E+2	
312.011720	8.90000000E+1	
312.500	1.02000000E+2	
312.988280	9.50000000E+1	
313.476560	9.90000000E+1	
313.964840	1.02000000E+2	
314.453130	1.11000000E+2	
314.941410	9.90000000E+1	
315.429690	9.90000000E+1	
315.91800	1.03000000E+2	
316.406250	1.15000000E+2	
316.894530	1.03000000E+2	
317.382810	9.70000000E+1	
317.871090	1.01000000E+2	
318.359380	1.06000000E+2	
318.847660	1.02000000E+2	
319.335940	1.02000000E+2	
319.824220	1.04000000E+2	
320.312500	1.24000000E+2	
320.800780	1.05000000E+2	
321.289060	1.04000000E+2	
321.777340	1.11000000E+2	
322.265630	9.50000000E+1	
322.753910	1.07000000E+2	
323.242190	1.01000000E+2	
323.730470	9.10000000E+1	
324.218750	1.08000000E+2	
324.70700	1.00000000E+2	
325.195310	9.10000000E+1	
325.683590	1.00000000E+2	
326.171880	9.10000000E+1	
326.660160	9.60000000E+1	
327.148440	8.90000000E+1	
327.636720	1.07000000E+2	
328.12500	1.05000000E+2	
328.613280	1.02000000E+2	
329.101560	9.90000000E+1	
329.589840	9.10000000E+1	
330.078130	1.10000000E+2	
330.566410	9.30000000E+1	
331.054690	1.03000000E+2	
331.54300	1.01000000E+2	
332.031250	1.01000000E+2	
332.519530	1.13000000E+2	
333.007810	1.06000000E+2	
333.496090	1.00000000E+2	
333.984380	1.20000000E+2	
334.472660	9.90000000E+1	
334.960940	1.03000000E+2	
335.449220	1.14000000E+2	
335.937500	9.80000000E+1	
336.425780	1.06000000E+2	
336.914060	1.13000000E+2	
337.402340	1.06000000E+2	
337.890630	9.50000000E+1	
338.378910	1.18000000E+2	
338.867190	1.02000000E+2	
339.355470	1.04000000E+2	
339.843750	9.40000000E+1	
340.33200	9.40000000E+1	
340.820310	1.10000000E+2	
341.308590	8.60000000E+1	
341.796880	8.10000000E+1	
342.285160	7.80000000E+1	
342.773440	1.08000000E+2	
343.261720	1.22000000E+2	
343.7500	1.01000000E+2	
344.238280	1.14000000E+2	
344.726560	8.80000000E+1	
345.214840	1.00000000E+2	
345.703130	9.70000000E+1	
346.191410	8.80000000E+1	
346.679690	1.01000000E+2	
347.16800	1.07000000E+2	
347.656250	9.10000000E+1	
348.144530	8.80000000E+1	
348.632810	1.15000000E+2	
349.121090	9.40000000E+1	
349.609380	9.80000000E+1	
350.097660	1.10000000E+2	
350.585940	9.90000000E+1	
351.074220	9.50000000E+1	
351.562500	1.02000000E+2	
352.050780	9.70000000E+1	
352.539060	9.80000000E+1	
353.027340	1.01000000E+2	
353.515630	1.02000000E+2	
354.003910	9.80000000E+1	
354.492190	9.60000000E+1	
354.980470	1.17000000E+2	
355.468750	8.80000000E+1	
355.95700	9.70000000E+1	
356.445310	1.00000000E+2	
356.933590	9.50000000E+1	
357.421880	8.80000000E+1	
357.910160	9.30000000E+1	
358.398440	9.80000000E+1	
358.886720	1.02000000E+2	
359.37500	1.16000000E+2	
359.863280	8.50000000E+1	
360.351560	9.40000000E+1	
360.839840	9.30000000E+1	
361.328130	1.01000000E+2	
361.816410	8.40000000E+1	
362.304690	9.40000000E+1	
362.79300	1.15000000E+2	
363.281250	1.05000000E+2	
363.769530	9.80000000E+1	
364.257810	8.70000000E+1	
364.746090	8.40000000E+1	
365.234380	1.01000000E+2	
365.722660	1.08000000E+2	
366.210940	9.50000000E+1	
366.699220	1.06000000E+2	
367.187500	8.90000000E+1	
367.675780	8.60000000E+1	
368.164060	1.10000000E+2	
368.652340	1.02000000E+2	
369.140630	1.00000000E+2	
369.628910	7.60000000E+1	
370.117190	7.90000000E+1	
370.605470	9.20000000E+1	
371.093750	8.40000000E+1	
371.58200	1.05000000E+2	
372.070310	1.06000000E+2	
372.558590	8.40000000E+1	
373.046880	9.10000000E+1	
373.535160	1.04000000E+2	
374.023440	8.40000000E+1	
374.511720	1.02000000E+2	
375.00	1.00000000E+2	
375.488280	9.40000000E+1	
375.976560	1.21000000E+2	
376.464840	1.12000000E+2	
376.953130	9.50000000E+1	
377.441410	1.02000000E+2	
377.929690	9.60000000E+1	
378.41800	9.30000000E+1	
378.906250	9.50000000E+1	
379.394530	1.02000000E+2	
379.882810	8.90000000E+1	
380.371090	1.02000000E+2	
380.859380	1.05000000E+2	
381.347660	9.50000000E+1	
381.835940	8.70000000E+1	
382.324220	9.30000000E+1	
382.812500	8.20000000E+1	
383.300780	1.04000000E+2	
383.789060	8.40000000E+1	
384.277340	8.80000000E+1	
384.765630	1.01000000E+2	
385.253910	8.30000000E+1	
385.742190	8.90000000E+1	
386.230470	9.50000000E+1	
386.718750	1.03000000E+2	
387.20700	9.70000000E+1	
387.695310	8.90000000E+1	
388.183590	9.60000000E+1	
388.671880	9.30000000E+1	
389.160160	1.16000000E+2	
389.648440	1.11000000E+2	
390.136720	9.90000000E+1	
390.62500	7.60000000E+1	
391.113280	8.50000000E+1	
391.601560	9.30000000E+1	
392.089840	8.80000000E+1	
392.578130	9.10000000E+1	
393.066410	8.90000000E+1	
393.554690	9.10000000E+1	
394.04300	9.90000000E+1	
394.531250	1.00000000E+2	
395.019530	7.50000000E+1	
395.507810	8.60000000E+1	
395.996090	1.03000000E+2	
396.484380	8.30000000E+1	
396.972660	9.50000000E+1	
397.460940	9.30000000E+1	
397.949220	1.19000000E+2	
398.437500	8.90000000E+1	
398.925780	9.60000000E+1	
399.414060	9.40000000E+1	
399.902340	1.00000000E+2	
400.390630	8.40000000E+1	
400.878910	8.80000000E+1	
401.367190	9.30000000E+1	
401.855470	8.80000000E+1	
402.343750	1.03000000E+2	
402.83200	9.40000000E+1	
403.320310	9.50000000E+1	
403.808590	1.07000000E+2	
404.296880	8.20000000E+1	
404.785160	1.02000000E+2	
405.273440	8.90000000E+1	
405.761720	8.00000000E+1	
406.2500	9.20000000E+1	
406.738280	8.30000000E+1	
407.226560	9.00000000E+1	
407.714840	9.30000000E+1	
408.203130	8.60000000E+1	
408.691410	9.60000000E+1	
409.179690	9.40000000E+1	
409.66800	8.90000000E+1	
410.156250	8.10000000E+1	
410.644530	8.10000000E+1	
411.132810	9.00000000E+1	
411.621090	9.00000000E+1	
412.109380	1.02000000E+2	
412.597660	8.80000000E+1	
413.085940	8.90000000E+1	
413.574220	1.01000000E+2	
414.062500	9.40000000E+1	
414.550780	8.30000000E+1	
415.039060	9.00000000E+1	
415.527340	7.20000000E+1	
416.015630	8.30000000E+1	
416.503910	8.90000000E+1	
416.992190	9.20000000E+1	
417.480470	1.00000000E+2	
417.968750	7.80000000E+1	
418.45700	1.03000000E+2	
418.945310	7.90000000E+1	
419.433590	1.07000000E+2	
419.921880	1.04000000E+2	
420.410160	9.00000000E+1	
420.898440	8.80000000E+1	
421.386720	9.00000000E+1	
421.87500	9.20000000E+1	
422.363280	1.04000000E+2	
422.851560	8.80000000E+1	
423.339840	6.70000000E+1	
423.828130	9.70000000E+1	
424.316410	9.00000000E+1	
424.804690	8.40000000E+1	
425.29300	1.04000000E+2	
425.781250	9.60000000E+1	
426.269530	9.40000000E+1	
426.757810	7.80000000E+1	
427.246090	8.60000000E+1	
427.734380	9.80000000E+1	
428.222660	8.30000000E+1	
428.710940	7.90000000E+1	
429.199220	8.60000000E+1	
429.687500	9.80000000E+1	
430.175780	1.00000000E+2	
430.664060	8.30000000E+1	
431.152340	9.70000000E+1	
431.640630	9.30000000E+1	
432.128910	8.20000000E+1	
432.617190	8.70000000E+1	
433.105470	8.50000000E+1	
433.593750	7.70000000E+1	
434.08200	9.40000000E+1	
434.570310	9.20000000E+1	
435.058590	6.90000000E+1	
435.546880	7.80000000E+1	
436.035160	7.10000000E+1	
436.523440	8.80000000E+1	
437.011720	8.80000000E+1	
437.500	8.60000000E+1	
437.988280	9.30000000E+1	
438.476560	1.18000000E+2	
438.964840	8.30000000E+1	
439.453130	9.10000000E+1	
439.941410	8.50000000E+1	
440.429690	8.60000000E+1	
440.91800	8.00000000E+1	
441.406250	8.80000000E+1	
441.894530	9.30000000E+1	
442.382810	8.20000000E+1	
442.871090	9.00000000E+1	
443.359380	8.90000000E+1	
443.847660	9.80000000E+1	
444.335940	1.10000000E+2	
444.824220	9.20000000E+1	
445.312500	1.05000000E+2	
445.800780	8.40000000E+1	
446.289060	7.60000000E+1	
446.777340	8.60000000E+1	
447.265630	9.10000000E+1	
447.753910	8.70000000E+1	
448.242190	7.60000000E+1	
448.730470	8.40000000E+1	
449.218750	1.05000000E+2	
449.70700	8.50000000E+1	
450.195310	8.70000000E+1	
450.683590	9.20000000E+1	
451.171880	9.30000000E+1	
451.660160	1.01000000E+2	
452.148440	1.03000000E+2	
452.636720	8.00000000E+1	
453.12500	8.70000000E+1	
453.613280	8.30000000E+1	
454.101560	7.20000000E+1	
454.589840	7.00000000E+1	
455.078130	9.00000000E+1	
455.566410	9.40000000E+1	
456.054690	1.02000000E+2	
456.54300	9.20000000E+1	
457.031250	7.30000000E+1	
457.519530	8.50000000E+1	
458.007810	9.30000000E+1	
458.496090	7.50000000E+1	
458.984380	7.70000000E+1	
459.472660	8.10000000E+1	
459.960940	8.20000000E+1	
460.449220	7.90000000E+1	
460.937500	7.50000000E+1	
461.425780	1.01000000E+2	
461.914060	1.01000000E+2	
462.402340	7.90000000E+1	
462.890630	1.03000000E+2	
463.378910	1.02000000E+2	
463.867190	8.00000000E+1	
464.355470	6.70000000E+1	
464.843750	6.30000000E+1	
465.33200	1.04000000E+2	
465.820310	8.80000000E+1	
466.308590	7.90000000E+1	
466.796880	8.60000000E+1	
467.285160	8.10000000E+1	
467.773440	8.90000000E+1	
468.261720	7.90000000E+1	
468.7500	8.50000000E+1	
469.238280	8.60000000E+1	
469.726560	1.10000000E+2	
470.214840	1.03000000E+2	
470.703130	8.70000000E+1	
471.191410	9.30000000E+1	
471.679690	1.07000000E+2	
472.16800	7.40000000E+1	
472.656250	8.30000000E+1	
473.144530	9.20000000E+1	
473.632810	8.60000000E+1	
474.121090	8.00000000E+1	
474.609380	9.30000000E+1	
475.097660	7.40000000E+1	
475.585940	8.60000000E+1	
476.074220	8.50000000E+1	
476.562500	9.30000000E+1	
477.050780	9.00000000E+1	
477.539060	9.20000000E+1	
478.027340	8.50000000E+1	
478.515630	8.50000000E+1	
479.003910	7.80000000E+1	
479.492190	1.06000000E+2	
479.980470	7.70000000E+1	
480.468750	8.90000000E+1	
480.95700	8.90000000E+1	
481.445310	8.60000000E+1	
481.933590	9.50000000E+1	
482.421880	8.00000000E+1	
482.910160	6.70000000E+1	
483.398440	8.60000000E+1	
483.886720	7.30000000E+1	
484.37500	6.80000000E+1	
484.863280	9.70000000E+1	
485.351560	9.60000000E+1	
485.839840	8.10000000E+1	
486.328130	9.00000000E+1	
486.816410	6.70000000E+1	
487.304690	9.00000000E+1	
487.79300	8.30000000E+1	
488.281250	8.90000000E+1	
488.769530	8.50000000E+1	
489.257810	9.50000000E+1	
489.746090	8.30000000E+1	
490.234380	8.70000000E+1	
490.722660	8.90000000E+1	
491.210940	9.60000000E+1	
491.699220	8.30000000E+1	
492.187500	7.70000000E+1	
492.675780	7.80000000E+1	
493.164060	1.02000000E+2	
493.652340	8.80000000E+1	
494.140630	9.10000000E+1	
494.628910	8.00000000E+1	
495.117190	7.60000000E+1	
495.605470	7.50000000E+1	
496.093750	1.07000000E+2	
496.58200	7.70000000E+1	
497.070310	9.60000000E+1	
497.558590	7.70000000E+1	
498.046880	8.40000000E+1	
498.535160	7.60000000E+1	
499.023440	7.50000000E+1	
499.511720	8.70000000E+1	
500.00	9.00000000E+1	
500.488280	8.90000000E+1	
500.976560	9.00000000E+1	
501.464840	8.50000000E+1	
501.953130	8.10000000E+1	
502.441410	8.30000000E+1	
502.929690	8.70000000E+1	
503.41800	8.80000000E+1	
503.906250	8.10000000E+1	
504.394530	8.80000000E+1	
504.882810	8.60000000E+1	
505.371090	9.40000000E+1	
505.859380	8.20000000E+1	
506.347660	8.10000000E+1	
506.835940	7.60000000E+1	
507.324220	1.04000000E+2	
507.812500	8.00000000E+1	
508.300780	6.80000000E+1	
508.789060	7.20000000E+1	
509.277340	6.90000000E+1	
509.765630	6.90000000E+1	
510.253910	8.20000000E+1	
510.742190	7.10000000E+1	
511.230470	8.10000000E+1	
511.718750	1.02000000E+2	
512.20700	8.00000000E+1	
512.695310	6.70000000E+1	
513.183590	7.40000000E+1	
513.671880	9.00000000E+1	
514.160160	8.60000000E+1	
514.648440	8.00000000E+1	
515.136720	6.70000000E+1	
515.62500	8.60000000E+1	
516.113280	9.10000000E+1	
516.601560	7.40000000E+1	
517.089840	8.00000000E+1	
517.578130	7.30000000E+1	
518.066410	8.90000000E+1	
518.554690	7.20000000E+1	
519.04300	9.30000000E+1	
519.531250	8.20000000E+1	
520.019530	7.80000000E+1	
520.507810	8.80000000E+1	
520.996090	9.50000000E+1	
521.484380	8.90000000E+1	
521.972660	7.50000000E+1	
522.460940	6.50000000E+1	
522.949220	8.40000000E+1	
523.437500	6.20000000E+1	
523.925780	9.10000000E+1	
524.414060	7.20000000E+1	
524.902340	8.30000000E+1	
525.390630	8.40000000E+1	
525.878910	7.90000000E+1	
526.367190	8.40000000E+1	
526.855470	9.30000000E+1	
527.343750	7.90000000E+1	
527.83200	7.10000000E+1	
528.320310	8.50000000E+1	
528.808590	8.70000000E+1	
529.296880	8.90000000E+1	
529.785160	7.70000000E+1	
530.273440	8.70000000E+1	
530.761720	8.60000000E+1	
531.2500	8.50000000E+1	
531.738280	8.30000000E+1	
532.226560	9.60000000E+1	
532.714840	8.00000000E+1	
533.203130	7.30000000E+1	
533.691410	7.90000000E+1	
534.179690	8.80000000E+1	
534.66800	6.90000000E+1	
535.156250	8.40000000E+1	
535.644530	6.60000000E+1	
536.132810	8.10000000E+1	
536.621090	6.60000000E+1	
537.109380	8.40000000E+1	
537.597660	7.30000000E+1	
538.085940	8.30000000E+1	
538.574220	8.20000000E+1	
539.062500	7.10000000E+1	
539.550780	6.30000000E+1	
540.039060	8.80000000E+1	
540.527340	7.50000000E+1	
541.015630	7.40000000E+1	
541.503910	8.30000000E+1	
541.992190	9.80000000E+1	
542.480470	9.50000000E+1	
542.968750	8.30000000E+1	
543.45700	6.10000000E+1	
543.945310	8.20000000E+1	
544.433590	7.50000000E+1	
544.921880	7.60000000E+1	
545.410160	7.30000000E+1	
545.898440	7.80000000E+1	
546.386720	8.10000000E+1	
546.87500	7.80000000E+1	
547.363280	7.70000000E+1	
547.851560	8.30000000E+1	
548.339840	7.60000000E+1	
548.828130	8.00000000E+1	
549.316410	7.40000000E+1	
549.804690	7.80000000E+1	
550.29300	7.80000000E+1	
550.781250	7.00000000E+1	
551.269530	6.90000000E+1	
551.757810	9.20000000E+1	
552.246090	7.30000000E+1	
552.734380	5.80000000E+1	
553.222660	6.80000000E+1	
553.710940	8.10000000E+1	
554.199220	7.40000000E+1	
554.687500	8.30000000E+1	
555.175780	9.80000000E+1	
555.664060	9.30000000E+1	
556.152340	7.70000000E+1	
556.640630	8.20000000E+1	
557.128910	8.20000000E+1	
557.617190	7.20000000E+1	
558.105470	8.00000000E+1	
558.593750	7.90000000E+1	
559.08200	7.80000000E+1	
559.570310	6.00000000E+1	
560.058590	7.60000000E+1	
560.546880	9.30000000E+1	
561.035160	6.50000000E+1	
561.523440	5.80000000E+1	
562.011720	8.70000000E+1	
562.500	8.30000000E+1	
562.988280	6.10000000E+1	
563.476560	8.20000000E+1	
563.964840	6.50000000E+1	
564.453130	7.90000000E+1	
564.941410	7.00000000E+1	
565.429690	7.40000000E+1	
565.91800	7.30000000E+1	
566.406250	8.00000000E+1	
566.894530	9.20000000E+1	
567.382810	8.60000000E+1	
567.871090	7.40000000E+1	
568.359380	7.70000000E+1	
568.847660	7.10000000E+1	
569.335940	7.30000000E+1	
569.824220	7.90000000E+1	
570.312500	8.50000000E+1	
570.800780	7.00000000E+1	
571.289060	8.40000000E+1	
571.777340	7.70000000E+1	
572.265630	7.80000000E+1	
572.753910	8.70000000E+1	
573.242190	6.60000000E+1	
573.730470	8.40000000E+1	
574.218750	7.90000000E+1	
574.70700	8.00000000E+1	
575.195310	7.30000000E+1	
575.683590	6.80000000E+1	
576.171880	8.90000000E+1	
576.660160	7.40000000E+1	
577.148440	6.30000000E+1	
577.636720	6.50000000E+1	
578.12500	7.60000000E+1	
578.613280	7.70000000E+1	
579.101560	8.60000000E+1	
579.589840	8.00000000E+1	
580.078130	8.70000000E+1	
580.566410	7.10000000E+1	
581.054690	7.70000000E+1	
581.54300	7.70000000E+1	
582.031250	7.90000000E+1	
582.519530	6.60000000E+1	
583.007810	7.00000000E+1	
583.496090	7.90000000E+1	
583.984380	8.50000000E+1	
584.472660	6.80000000E+1	
584.960940	7.90000000E+1	
585.449220	8.80000000E+1	
585.937500	8.30000000E+1	
586.425780	8.60000000E+1	
586.914060	8.00000000E+1	
587.402340	7.00000000E+1	
587.890630	6.10000000E+1	
588.378910	7.40000000E+1	
588.867190	9.20000000E+1	
589.355470	7.10000000E+1	
589.843750	8.80000000E+1	
590.33200	7.10000000E+1	
590.820310	6.00000000E+1	
591.308590	8.80000000E+1	
591.796880	7.40000000E+1	
592.285160	8.30000000E+1	
592.773440	7.70000000E+1	
593.261720	6.60000000E+1	
593.7500	5.50000000E+1	
594.238280	7.90000000E+1	
594.726560	8.40000000E+1	
595.214840	8.10000000E+1	
595.703130	8.40000000E+1	
596.191410	8.70000000E+1	
596.679690	7.30000000E+1	
597.16800	7.50000000E+1	
597.656250	7.00000000E+1	
598.144530	8.10000000E+1	
598.632810	9.00000000E+1	
599.121090	6.20000000E+1	
599.609380	5.40000000E+1	
600.097660	7.10000000E+1	
600.585940	7.00000000E+1	
601.074220	7.90000000E+1	
601.562500	7.30000000E+1	
602.050780	8.50000000E+1	
602.539060	6.70000000E+1	
603.027340	6.70000000E+1	
603.515630	5.80000000E+1	
604.003910	8.20000000E+1	
604.492190	6.20000000E+1	
604.980470	7.00000000E+1	
605.468750	6.80000000E+1	
605.95700	7.90000000E+1	
606.445310	7.70000000E+1	
606.933590	8.10000000E+1	
607.421880	7.20000000E+1	
607.910160	8.00000000E+1	
608.398440	7.40000000E+1	
608.886720	8.00000000E+1	
609.37500	6.00000000E+1	
609.863280	8.20000000E+1	
610.351560	7.80000000E+1	
610.839840	7.90000000E+1	
611.328130	6.90000000E+1	
611.816410	7.50000000E+1	
612.304690	6.70000000E+1	
612.79300	7.80000000E+1	
613.281250	7.30000000E+1	
613.769530	7.60000000E+1	
614.257810	6.40000000E+1	
614.746090	8.10000000E+1	
615.234380	8.20000000E+1	
615.722660	8.10000000E+1	
616.210940	6.90000000E+1	
616.699220	7.20000000E+1	
617.187500	7.70000000E+1	
617.675780	7.40000000E+1	
618.164060	7.10000000E+1	
618.652340	7.30000000E+1	
619.140630	6.90000000E+1	
619.628910	6.20000000E+1	
620.117190	7.80000000E+1	
620.605470	7.40000000E+1	
621.093750	8.30000000E+1	
621.58200	7.00000000E+1	
622.070310	6.90000000E+1	
622.558590	7.90000000E+1	
623.046880	6.00000000E+1	
623.535160	7.80000000E+1	
624.023440	8.30000000E+1	
624.511720	7.90000000E+1	
625.00	5.60000000E+1	
625.488280	6.90000000E+1	
625.976560	8.00000000E+1	
626.464840	6.60000000E+1	
626.953130	8.40000000E+1	
627.441410	7.50000000E+1	
627.929690	6.80000000E+1	
628.41800	7.10000000E+1	
628.906250	6.00000000E+1	
629.394530	8.40000000E+1	
629.882810	5.90000000E+1	
630.371090	7.40000000E+1	
630.859380	6.20000000E+1	
631.347660	7.30000000E+1	
631.835940	6.30000000E+1	
632.324220	7.90000000E+1	
632.812500	7.60000000E+1	
633.300780	8.80000000E+1	
633.789060	8.20000000E+1	
634.277340	6.30000000E+1	
634.765630	6.00000000E+1	
635.253910	8.40000000E+1	
635.742190	6.20000000E+1	
636.230470	6.30000000E+1	
636.718750	6.80000000E+1	
637.20700	6.70000000E+1	
637.695310	7.50000000E+1	
638.183590	6.60000000E+1	
638.671880	7.90000000E+1	
639.160160	8.80000000E+1	
639.648440	7.10000000E+1	
640.136720	7.60000000E+1	
640.62500	7.30000000E+1	
641.113280	5.90000000E+1	
641.601560	5.60000000E+1	
642.089840	8.20000000E+1	
642.578130	5.10000000E+1	
643.066410	6.80000000E+1	
643.554690	8.40000000E+1	
644.04300	7.10000000E+1	
644.531250	6.40000000E+1	
645.019530	6.00000000E+1	
645.507810	5.80000000E+1	
645.996090	6.60000000E+1	
646.484380	6.80000000E+1	
646.972660	6.90000000E+1	
647.460940	6.50000000E+1	
647.949220	6.30000000E+1	
648.437500	6.50000000E+1	
648.925780	6.20000000E+1	
649.414060	8.60000000E+1	
649.902340	7.90000000E+1	
650.390630	8.40000000E+1	
650.878910	6.70000000E+1	
651.367190	6.90000000E+1	
651.855470	7.10000000E+1	
652.343750	7.40000000E+1	
652.83200	5.80000000E+1	
653.320310	6.70000000E+1	
653.808590	6.30000000E+1	
654.296880	6.20000000E+1	
654.785160	6.30000000E+1	
655.273440	6.90000000E+1	
655.761720	7.30000000E+1	
656.2500	7.40000000E+1	
656.738280	5.20000000E+1	
657.226560	5.80000000E+1	
657.714840	7.80000000E+1	
658.203130	5.80000000E+1	
658.691410	6.70000000E+1	
659.179690	7.60000000E+1	
659.66800	7.80000000E+1	
660.156250	6.80000000E+1	
660.644530	7.00000000E+1	
661.132810	8.00000000E+1	
661.621090	7.50000000E+1	
662.109380	8.70000000E+1	
662.597660	6.40000000E+1	
663.085940	6.60000000E+1	
663.574220	7.10000000E+1	
664.062500	5.50000000E+1	
664.550780	6.80000000E+1	
665.039060	7.50000000E+1	
665.527340	7.40000000E+1	
666.015630	8.00000000E+1	
666.503910	5.90000000E+1	
666.992190	6.90000000E+1	
667.480470	7.30000000E+1	
667.968750	7.70000000E+1	
668.45700	8.40000000E+1	
668.945310	5.90000000E+1	
669.433590	7.50000000E+1	
669.921880	7.20000000E+1	
670.410160	7.40000000E+1	
670.898440	6.40000000E+1	
671.386720	5.90000000E+1	
671.87500	8.20000000E+1	
672.363280	6.60000000E+1	
672.851560	6.20000000E+1	
673.339840	6.70000000E+1	
673.828130	8.50000000E+1	
674.316410	6.70000000E+1	
674.804690	7.10000000E+1	
675.29300	5.90000000E+1	
675.781250	8.30000000E+1	
676.269530	7.90000000E+1	
676.757810	7.20000000E+1	
677.246090	7.50000000E+1	
677.734380	8.00000000E+1	
678.222660	6.50000000E+1	
678.710940	7.50000000E+1	
679.199220	7.60000000E+1	
679.687500	6.40000000E+1	
680.175780	7.40000000E+1	
680.664060	5.90000000E+1	
681.152340	7.40000000E+1	
681.640630	7.10000000E+1	
682.128910	9.20000000E+1	
682.617190	7.80000000E+1	
683.105470	6.50000000E+1	
683.593750	8.70000000E+1	
684.08200	7.00000000E+1	
684.570310	6.30000000E+1	
685.058590	6.10000000E+1	
685.546880	7.80000000E+1	
686.035160	7.40000000E+1	
686.523440	7.90000000E+1	
687.011720	8.70000000E+1	
687.500	5.40000000E+1	
687.988280	6.50000000E+1	
688.476560	7.50000000E+1	
688.964840	8.60000000E+1	
689.453130	5.10000000E+1	
689.941410	7.80000000E+1	
690.429690	7.40000000E+1	
690.91800	8.70000000E+1	
691.406250	6.40000000E+1	
691.894530	6.50000000E+1	
692.382810	7.70000000E+1	
692.871090	6.20000000E+1	
693.359380	7.60000000E+1	
693.847660	6.60000000E+1	
694.335940	7.60000000E+1	
694.824220	5.60000000E+1	
695.312500	5.50000000E+1	
695.800780	6.30000000E+1	
696.289060	6.90000000E+1	
696.777340	7.00000000E+1	
697.265630	7.90000000E+1	
697.753910	6.80000000E+1	
698.242190	8.50000000E+1	
698.730470	5.50000000E+1	
699.218750	6.00000000E+1	
699.70700	7.30000000E+1	
700.195310	7.50000000E+1	
700.683590	5.80000000E+1	
701.171880	9.50000000E+1	
701.660160	7.50000000E+1	
702.148440	8.30000000E+1	
702.636720	5.50000000E+1	
703.12500	5.00000000E+1	
703.613280	8.60000000E+1	
704.101560	6.70000000E+1	
704.589840	5.80000000E+1	
705.078130	7.90000000E+1	
705.566410	7.20000000E+1	
706.054690	5.30000000E+1	
706.54300	6.60000000E+1	
707.031250	5.70000000E+1	
707.519530	6.40000000E+1	
708.007810	6.40000000E+1	
708.496090	8.00000000E+1	
708.984380	7.40000000E+1	
709.472660	6.80000000E+1	
709.960940	6.30000000E+1	
710.449220	7.20000000E+1	
710.937500	7.20000000E+1	
711.425780	7.30000000E+1	
711.914060	7.10000000E+1	
712.402340	6.50000000E+1	
712.890630	6.80000000E+1	
713.378910	6.60000000E+1	
713.867190	6.30000000E+1	
714.355470	6.10000000E+1	
714.843750	6.20000000E+1	
715.33200	6.50000000E+1	
715.820310	7.10000000E+1	
716.308590	6.50000000E+1	
716.796880	7.00000000E+1	
717.285160	7.10000000E+1	
717.773440	6.30000000E+1	
718.261720	5.40000000E+1	
718.7500	6.80000000E+1	
719.238280	7.00000000E+1	
719.726560	7.50000000E+1	
720.214840	5.50000000E+1	
720.703130	6.80000000E+1	
721.191410	6.80000000E+1	
721.679690	6.80000000E+1	
722.16800	5.90000000E+1	
722.656250	7.50000000E+1	
723.144530	5.90000000E+1	
723.632810	5.90000000E+1	
724.121090	5.90000000E+1	
724.609380	7.40000000E+1	
725.097660	7.20000000E+1	
725.585940	6.40000000E+1	
726.074220	6.80000000E+1	
726.562500	5.20000000E+1	
727.050780	5.50000000E+1	
727.539060	7.30000000E+1	
728.027340	6.40000000E+1	
728.515630	6.80000000E+1	
729.003910	8.40000000E+1	
729.492190	7.00000000E+1	
729.980470	7.10000000E+1	
730.468750	8.50000000E+1	
730.95700	6.40000000E+1	
731.445310	6.40000000E+1	
731.933590	5.80000000E+1	
732.421880	6.20000000E+1	
732.910160	4.70000000E+1	
733.398440	4.90000000E+1	
733.886720	7.70000000E+1	
734.37500	7.30000000E+1	
734.863280	7.30000000E+1	
735.351560	7.30000000E+1	
735.839840	6.20000000E+1	
736.328130	7.70000000E+1	
736.816410	6.20000000E+1	
737.304690	8.00000000E+1	
737.79300	6.40000000E+1	
738.281250	6.70000000E+1	
738.769530	5.90000000E+1	
739.257810	6.00000000E+1	
739.746090	5.70000000E+1	
740.234380	8.30000000E+1	
740.722660	6.10000000E+1	
741.210940	6.10000000E+1	
741.699220	6.70000000E+1	
742.187500	5.50000000E+1	
742.675780	7.00000000E+1	
743.164060	7.10000000E+1	
743.652340	8.00000000E+1	
744.140630	5.90000000E+1	
744.628910	5.60000000E+1	
745.117190	7.00000000E+1	
745.605470	6.80000000E+1	
746.093750	6.00000000E+1	
746.58200	6.30000000E+1	
747.070310	6.30000000E+1	
747.558590	6.00000000E+1	
748.046880	6.70000000E+1	
748.535160	5.70000000E+1	
749.023440	6.80000000E+1	
749.511720	6.10000000E+1	
750.00	7.00000000E+1	
750.488280	5.10000000E+1	
750.976560	5.20000000E+1	
751.464840	6.10000000E+1	
751.953130	6.00000000E+1	
752.441410	6.10000000E+1	
752.929690	5.90000000E+1	
753.41800	6.40000000E+1	
753.906250	8.10000000E+1	
754.394530	7.20000000E+1	
754.882810	6.00000000E+1	
755.371090	6.10000000E+1	
755.859380	6.00000000E+1	
756.347660	5.10000000E+1	
756.835940	6.00000000E+1	
757.324220	5.60000000E+1	
757.812500	7.10000000E+1	
758.300780	6.10000000E+1	
758.789060	7.40000000E+1	
759.277340	5.30000000E+1	
759.765630	6.80000000E+1	
760.253910	5.80000000E+1	
760.742190	4.90000000E+1	
761.230470	6.90000000E+1	
761.718750	6.30000000E+1	
762.20700	6.40000000E+1	
762.695310	5.80000000E+1	
763.183590	7.40000000E+1	
763.671880	6.90000000E+1	
764.160160	6.40000000E+1	
764.648440	5.40000000E+1	
765.136720	6.80000000E+1	
765.62500	6.70000000E+1	
766.113280	5.90000000E+1	
766.601560	7.30000000E+1	
767.089840	5.90000000E+1	
767.578130	6.30000000E+1	
768.066410	5.20000000E+1	
768.554690	6.30000000E+1	
769.04300	5.60000000E+1	
769.531250	5.50000000E+1	
770.019530	6.20000000E+1	
770.507810	7.30000000E+1	
770.996090	7.30000000E+1	
771.484380	6.80000000E+1	
771.972660	6.10000000E+1	
772.460940	6.00000000E+1	
772.949220	5.00000000E+1	
773.437500	7.00000000E+1	
773.925780	6.90000000E+1	
774.414060	6.10000000E+1	
774.902340	6.90000000E+1	
775.390630	5.20000000E+1	
775.878910	5.90000000E+1	
776.367190	6.10000000E+1	
776.855470	7.90000000E+1	
777.343750	7.10000000E+1	
777.83200	6.50000000E+1	
778.320310	6.40000000E+1	
778.808590	6.30000000E+1	
779.296880	6.90000000E+1	
779.785160	7.80000000E+1	
780.273440	6.00000000E+1	
780.761720	6.20000000E+1	
781.2500	6.30000000E+1	
781.738280	6.20000000E+1	
782.226560	5.80000000E+1	
782.714840	5.80000000E+1	
783.203130	5.70000000E+1	
783.691410	6.20000000E+1	
784.179690	5.90000000E+1	
784.66800	6.40000000E+1	
785.156250	5.60000000E+1	
785.644530	7.00000000E+1	
786.132810	6.40000000E+1	
786.621090	5.40000000E+1	
787.109380	6.20000000E+1	
787.597660	4.20000000E+1	
788.085940	6.00000000E+1	
788.574220	8.00000000E+1	
789.062500	5.60000000E+1	
789.550780	6.50000000E+1	
790.039060	6.60000000E+1	
790.527340	5.30000000E+1	
791.015630	6.40000000E+1	
791.503910	6.00000000E+1	
791.992190	7.00000000E+1	
792.480470	5.70000000E+1	
792.968750	6.70000000E+1	
793.45700	5.60000000E+1	
793.945310	4.90000000E+1	
794.433590	6.30000000E+1	
794.921880	7.60000000E+1	
795.410160	5.50000000E+1	
795.898440	5.30000000E+1	
796.386720	6.40000000E+1	
796.87500	6.50000000E+1	
797.363280	6.30000000E+1	
797.851560	4.40000000E+1	
798.339840	7.10000000E+1	
798.828130	5.10000000E+1	
799.316410	8.00000000E+1	
799.804690	6.60000000E+1	
800.29300	6.00000000E+1	
800.781250	5.50000000E+1	
801.269530	5.70000000E+1	
801.757810	5.30000000E+1	
802.246090	7.10000000E+1	
802.734380	6.20000000E+1	
803.222660	6.40000000E+1	
803.710940	5.80000000E+1	
804.199220	6.60000000E+1	
804.687500	5.80000000E+1	
805.175780	6.50000000E+1	
805.664060	5.00000000E+1	
806.152340	6.00000000E+1	
806.640630	7.00000000E+1	
807.128910	5.60000000E+1	
807.617190	5.40000000E+1	
808.105470	5.20000000E+1	
808.593750	5.80000000E+1	
809.08200	5.50000000E+1	
809.570310	5.00000000E+1	
810.058590	6.10000000E+1	
810.546880	5.90000000E+1	
811.035160	8.30000000E+1	
811.523440	5.20000000E+1	
812.011720	5.50000000E+1	
812.500	6.20000000E+1	
812.988280	5.40000000E+1	
813.476560	6.90000000E+1	
813.964840	4.70000000E+1	
814.453130	5.40000000E+1	
814.941410	7.20000000E+1	
815.429690	7.00000000E+1	
815.91800	5.10000000E+1	
816.406250	5.90000000E+1	
816.894530	6.20000000E+1	
817.382810	7.10000000E+1	
817.871090	7.10000000E+1	
818.359380	5.00000000E+1	
818.847660	7.20000000E+1	
819.335940	5.70000000E+1	
819.824220	5.10000000E+1	
820.312500	6.50000000E+1	
820.800780	5.90000000E+1	
821.289060	5.10000000E+1	
821.777340	5.60000000E+1	
822.265630	6.90000000E+1	
822.753910	7.10000000E+1	
823.242190	5.20000000E+1	
823.730470	6.70000000E+1	
824.218750	5.50000000E+1	
824.70700	6.70000000E+1	
825.195310	7.50000000E+1	
825.683590	7.20000000E+1	
826.171880	5.10000000E+1	
826.660160	6.00000000E+1	
827.148440	5.70000000E+1	
827.636720	6.80000000E+1	
828.12500	5.50000000E+1	
828.613280	7.20000000E+1	
829.101560	6.00000000E+1	
829.589840	6.20000000E+1	
830.078130	6.10000000E+1	
830.566410	4.40000000E+1	
831.054690	7.30000000E+1	
831.54300	5.80000000E+1	
832.031250	6.00000000E+1	
832.519530	5.40000000E+1	
833.007810	6.10000000E+1	
833.496090	6.40000000E+1	
833.984380	6.90000000E+1	
834.472660	4.60000000E+1	
834.960940	6.90000000E+1	
835.449220	5.60000000E+1	
835.937500	6.00000000E+1	
836.425780	6.40000000E+1	
836.914060	5.70000000E+1	
837.402340	6.90000000E+1	
837.890630	5.20000000E+1	
838.378910	4.90000000E+1	
838.867190	5.80000000E+1	
839.355470	5.90000000E+1	
839.843750	6.30000000E+1	
840.33200	5.40000000E+1	
840.820310	6.30000000E+1	
841.308590	6.80000000E+1	
841.796880	4.60000000E+1	
842.285160	5.50000000E+1	
842.773440	5.50000000E+1	
843.261720	6.80000000E+1	
843.7500	5.00000000E+1	
844.238280	5.30000000E+1	
844.726560	6.70000000E+1	
845.214840	5.80000000E+1	
845.703130	5.10000000E+1	
846.191410	4.80000000E+1	
846.679690	4.50000000E+1	
847.16800	5.80000000E+1	
847.656250	5.00000000E+1	
848.144530	7.20000000E+1	
848.632810	5.20000000E+1	
849.121090	7.20000000E+1	
849.609380	6.70000000E+1	
850.097660	5.90000000E+1	
850.585940	6.50000000E+1	
851.074220	5.30000000E+1	
851.562500	6.50000000E+1	
852.050780	6.00000000E+1	
852.539060	7.30000000E+1	
853.027340	6.20000000E+1	
853.515630	4.20000000E+1	
854.003910	6.50000000E+1	
854.492190	6.70000000E+1	
854.980470	6.50000000E+1	
855.468750	6.00000000E+1	
855.95700	6.30000000E+1	
856.445310	5.80000000E+1	
856.933590	7.10000000E+1	
857.421880	5.50000000E+1	
857.910160	5.10000000E+1	
858.398440	5.00000000E+1	
858.886720	5.80000000E+1	
859.37500	6.80000000E+1	
859.863280	6.80000000E+1	
860.351560	5.80000000E+1	
860.839840	5.30000000E+1	
861.328130	5.30000000E+1	
861.816410	6.00000000E+1	
862.304690	6.70000000E+1	
862.79300	6.20000000E+1	
863.281250	5.30000000E+1	
863.769530	7.30000000E+1	
864.257810	4.90000000E+1	
864.746090	5.70000000E+1	
865.234380	5.60000000E+1	
865.722660	5.60000000E+1	
866.210940	5.70000000E+1	
866.699220	4.90000000E+1	
867.187500	5.00000000E+1	
867.675780	6.10000000E+1	
868.164060	6.40000000E+1	
868.652340	5.50000000E+1	
869.140630	5.70000000E+1	
869.628910	4.90000000E+1	
870.117190	7.20000000E+1	
870.605470	4.90000000E+1	
871.093750	5.70000000E+1	
871.58200	6.90000000E+1	
872.070310	6.90000000E+1	
872.558590	7.50000000E+1	
873.046880	5.80000000E+1	
873.535160	5.00000000E+1	
874.023440	5.80000000E+1	
874.511720	5.10000000E+1	
875.00	7.00000000E+1	
875.488280	6.80000000E+1	
875.976560	6.70000000E+1	
876.464840	7.50000000E+1	
876.953130	4.70000000E+1	
877.441410	5.20000000E+1	
877.929690	5.70000000E+1	
878.41800	6.40000000E+1	
878.906250	4.70000000E+1	
879.394530	6.40000000E+1	
879.882810	5.20000000E+1	
880.371090	6.30000000E+1	
880.859380	5.90000000E+1	
881.347660	5.00000000E+1	
881.835940	5.80000000E+1	
882.324220	7.60000000E+1	
882.812500	6.00000000E+1	
883.300780	7.60000000E+1	
883.789060	5.70000000E+1	
884.277340	6.00000000E+1	
884.765630	5.80000000E+1	
885.253910	6.60000000E+1	
885.742190	6.20000000E+1	
886.230470	6.00000000E+1	
886.718750	5.70000000E+1	
887.20700	5.50000000E+1	
887.695310	4.80000000E+1	
888.183590	5.00000000E+1	
888.671880	5.30000000E+1	
889.160160	5.70000000E+1	
889.648440	5.80000000E+1	
890.136720	5.20000000E+1	
890.62500	5.70000000E+1	
891.113280	5.40000000E+1	
891.601560	5.80000000E+1	
892.089840	5.10000000E+1	
892.578130	6.20000000E+1	
893.066410	5.00000000E+1	
893.554690	6.10000000E+1	
894.04300	7.00000000E+1	
894.531250	5.80000000E+1	
895.019530	4.30000000E+1	
895.507810	7.10000000E+1	
895.996090	5.20000000E+1	
896.484380	5.60000000E+1	
896.972660	5.40000000E+1	
897.460940	5.70000000E+1	
897.949220	5.60000000E+1	
898.437500	5.80000000E+1	
898.925780	5.30000000E+1	
899.414060	6.00000000E+1	
899.902340	6.00000000E+1	
900.390630	5.90000000E+1	
900.878910	7.00000000E+1	
901.367190	6.20000000E+1	
901.855470	5.00000000E+1	
902.343750	5.90000000E+1	
902.83200	4.50000000E+1	
903.320310	6.50000000E+1	
903.808590	5.60000000E+1	
904.296880	4.90000000E+1	
904.785160	4.70000000E+1	
905.273440	5.90000000E+1	
905.761720	5.50000000E+1	
906.2500	5.60000000E+1	
906.738280	6.70000000E+1	
907.226560	5.90000000E+1	
907.714840	5.80000000E+1	
908.203130	5.90000000E+1	
908.691410	4.60000000E+1	
909.179690	6.70000000E+1	
909.66800	5.10000000E+1	
910.156250	5.30000000E+1	
910.644530	6.10000000E+1	
911.132810	4.80000000E+1	
911.621090	5.90000000E+1	
912.109380	5.50000000E+1	
912.597660	5.10000000E+1	
913.085940	5.60000000E+1	
913.574220	4.60000000E+1	
914.062500	5.30000000E+1	
914.550780	6.40000000E+1	
915.039060	6.60000000E+1	
915.527340	4.80000000E+1	
916.015630	6.60000000E+1	
916.503910	4.30000000E+1	
916.992190	4.90000000E+1	
917.480470	4.50000000E+1	
917.968750	4.90000000E+1	
918.45700	5.90000000E+1	
918.945310	4.90000000E+1	
919.433590	5.60000000E+1	
919.921880	5.90000000E+1	
920.410160	4.80000000E+1	
920.898440	6.00000000E+1	
921.386720	5.90000000E+1	
921.87500	5.80000000E+1	
922.363280	4.80000000E+1	
922.851560	4.70000000E+1	
923.339840	5.40000000E+1	
923.828130	5.40000000E+1	
924.316410	6.10000000E+1	
924.804690	5.70000000E+1	
925.29300	5.00000000E+1	
925.781250	6.00000000E+1	
926.269530	5.60000000E+1	
926.757810	6.60000000E+1	
927.246090	4.80000000E+1	
927.734380	7.30000000E+1	
928.222660	6.20000000E+1	
928.710940	5.50000000E+1	
929.199220	5.30000000E+1	
929.687500	5.60000000E+1	
930.175780	4.60000000E+1	
930.664060	5.60000000E+1	
931.152340	4.80000000E+1	
931.640630	5.50000000E+1	
932.128910	6.40000000E+1	
932.617190	4.40000000E+1	
933.105470	5.80000000E+1	
933.593750	5.90000000E+1	
934.08200	6.20000000E+1	
934.570310	4.80000000E+1	
935.058590	6.00000000E+1	
935.546880	5.70000000E+1	
936.035160	5.40000000E+1	
936.523440	5.90000000E+1	
937.011720	5.10000000E+1	
937.500	6.70000000E+1	
937.988280	6.50000000E+1	
938.476560	4.60000000E+1	
938.964840	6.10000000E+1	
939.453130	5.20000000E+1	
939.941410	6.40000000E+1	
940.429690	4.90000000E+1	
940.91800	6.70000000E+1	
941.406250	5.80000000E+1	
941.894530	6.50000000E+1	
942.382810	7.80000000E+1	
942.871090	5.30000000E+1	
943.359380	5.90000000E+1	
943.847660	6.40000000E+1	
944.335940	5.50000000E+1	
944.824220	6.00000000E+1	
945.312500	6.10000000E+1	
945.800780	5.10000000E+1	
946.289060	5.60000000E+1	
946.777340	6.40000000E+1	
947.265630	6.10000000E+1	
947.753910	5.80000000E+1	
948.242190	5.20000000E+1	
948.730470	4.90000000E+1	
949.218750	5.90000000E+1	
949.70700	6.20000000E+1	
950.195310	5.80000000E+1	
950.683590	6.10000000E+1	
951.171880	4.80000000E+1	
951.660160	6.00000000E+1	
952.148440	4.30000000E+1	
952.636720	7.00000000E+1	
953.12500	5.70000000E+1	
953.613280	6.00000000E+1	
954.101560	5.00000000E+1	
954.589840	4.80000000E+1	
955.078130	5.40000000E+1	
955.566410	6.00000000E+1	
956.054690	4.20000000E+1	
956.54300	7.70000000E+1	
957.031250	5.70000000E+1	
957.519530	5.60000000E+1	
958.007810	6.30000000E+1	
958.496090	6.00000000E+1	
958.984380	5.10000000E+1	
959.472660	4.70000000E+1	
959.960940	6.40000000E+1	
960.449220	4.40000000E+1	
960.937500	5.90000000E+1	
961.425780	6.10000000E+1	
961.914060	5.60000000E+1	
962.402340	5.60000000E+1	
962.890630	5.70000000E+1	
963.378910	5.90000000E+1	
963.867190	3.80000000E+1	
964.355470	4.60000000E+1	
964.843750	4.90000000E+1	
965.33200	6.20000000E+1	
965.820310	4.70000000E+1	
966.308590	5.10000000E+1	
966.796880	4.70000000E+1	
967.285160	5.80000000E+1	
967.773440	4.60000000E+1	
968.261720	5.00000000E+1	
968.7500	5.30000000E+1	
969.238280	4.80000000E+1	
969.726560	5.90000000E+1	
970.214840	5.90000000E+1	
970.703130	4.90000000E+1	
971.191410	6.70000000E+1	
971.679690	5.00000000E+1	
972.16800	5.80000000E+1	
972.656250	6.00000000E+1	
973.144530	5.80000000E+1	
973.632810	5.30000000E+1	
974.121090	5.70000000E+1	
974.609380	4.90000000E+1	
975.097660	5.40000000E+1	
975.585940	6.50000000E+1	
976.074220	5.60000000E+1	
976.562500	4.80000000E+1	
977.050780	4.60000000E+1	
977.539060	6.10000000E+1	
978.027340	5.00000000E+1	
978.515630	5.00000000E+1	
979.003910	5.90000000E+1	
979.492190	5.30000000E+1	
979.980470	5.50000000E+1	
980.468750	6.10000000E+1	
980.95700	5.20000000E+1	
981.445310	5.60000000E+1	
981.933590	5.60000000E+1	
982.421880	5.60000000E+1	
982.910160	5.30000000E+1	
983.398440	5.50000000E+1	
983.886720	6.60000000E+1	
984.37500	4.80000000E+1	
984.863280	7.00000000E+1	
985.351560	4.30000000E+1	
985.839840	5.80000000E+1	
986.328130	5.20000000E+1	
986.816410	6.40000000E+1	
987.304690	5.30000000E+1	
987.79300	4.10000000E+1	
988.281250	5.00000000E+1	
988.769530	5.90000000E+1	
989.257810	6.00000000E+1	
989.746090	5.40000000E+1	
990.234380	5.00000000E+1	
990.722660	4.90000000E+1	
991.210940	6.80000000E+1	
991.699220	4.90000000E+1	
992.187500	5.50000000E+1	
992.675780	6.20000000E+1	
993.164060	5.60000000E+1	
993.652340	5.30000000E+1	
994.140630	5.60000000E+1	
994.628910	5.50000000E+1	
995.117190	5.20000000E+1	
995.605470	3.80000000E+1	
996.093750	6.00000000E+1	
996.58200	5.00000000E+1	
997.070310	5.50000000E+1	
997.558590	4.50000000E+1	
998.046880	6.70000000E+1	
998.535160	5.60000000E+1	
999.023440	4.80000000E+1	
999.511720	3.90000000E+1	
1000.00	5.40000000E+1	
1000.488300	5.50000000E+1	
1000.976600	5.40000000E+1	
1001.464800	5.50000000E+1	
1001.953100	4.10000000E+1	
1002.441400	3.60000000E+1	
1002.93000	5.40000000E+1	
1003.418000	4.30000000E+1	
1003.906300	4.80000000E+1	
1004.394500	4.90000000E+1	
1004.882800	4.60000000E+1	
1005.371100	4.60000000E+1	
1005.859400	5.60000000E+1	
1006.347700	3.70000000E+1	
1006.835900	5.10000000E+1	
1007.324200	4.40000000E+1	
1007.812500	5.90000000E+1	
1008.300800	5.00000000E+1	
1008.789100	4.50000000E+1	
1009.277300	4.70000000E+1	
1009.765600	5.80000000E+1	
1010.253900	6.20000000E+1	
1010.742200	4.70000000E+1	
1011.23000	6.10000000E+1	
1011.718800	5.40000000E+1	
1012.207000	4.80000000E+1	
1012.695300	4.70000000E+1	
1013.183600	4.40000000E+1	
1013.671900	5.20000000E+1	
1014.16000	4.50000000E+1	
1014.648400	5.10000000E+1	
1015.136700	5.30000000E+1	
1015.625000	5.50000000E+1	
1016.113300	4.80000000E+1	
1016.601600	4.60000000E+1	
1017.09000	4.20000000E+1	
1017.578100	5.90000000E+1	
1018.066400	4.70000000E+1	
1018.554700	5.40000000E+1	
1019.043000	4.60000000E+1	
1019.531300	5.20000000E+1	
1020.02000	5.60000000E+1	
1020.507800	4.50000000E+1	
1020.996100	5.00000000E+1	
1021.484400	5.10000000E+1	
1021.972700	5.80000000E+1	
1022.460900	4.90000000E+1	
1022.949200	5.10000000E+1	
1023.437500	5.70000000E+1	
1023.925800	5.50000000E+1	
1024.414100	4.50000000E+1	
1024.902300	5.00000000E+1	
1025.390600	5.20000000E+1	
1025.878900	5.50000000E+1	
1026.367200	5.80000000E+1	
1026.855500	5.10000000E+1	
1027.343800	5.80000000E+1	
1027.832000	4.90000000E+1	
1028.32000	4.70000000E+1	
1028.808600	4.70000000E+1	
1029.296900	4.20000000E+1	
1029.785200	5.20000000E+1	
1030.273400	5.60000000E+1	
1030.761700	4.60000000E+1	
1031.25000	4.70000000E+1	
1031.738300	5.20000000E+1	
1032.226600	4.10000000E+1	
1032.714800	4.80000000E+1	
1033.203100	6.50000000E+1	
1033.691400	5.60000000E+1	
1034.18000	4.90000000E+1	
1034.668000	6.30000000E+1	
1035.156300	5.30000000E+1	
1035.644500	6.10000000E+1	
1036.132800	6.10000000E+1	
1036.621100	4.90000000E+1	
1037.109400	6.60000000E+1	
1037.597700	4.00000000E+1	
1038.085900	4.80000000E+1	
1038.574200	5.50000000E+1	
1039.062500	4.30000000E+1	
1039.550800	5.20000000E+1	
1040.039100	5.00000000E+1	
1040.527300	5.20000000E+1	
1041.015600	5.00000000E+1	
1041.503900	4.20000000E+1	
1041.992200	5.60000000E+1	
1042.48000	4.80000000E+1	
1042.968800	5.10000000E+1	
1043.457000	4.20000000E+1	
1043.945300	5.80000000E+1	
1044.433600	5.30000000E+1	
1044.921900	5.20000000E+1	
1045.41000	6.00000000E+1	
1045.898400	5.70000000E+1	
1046.386700	5.30000000E+1	
1046.875000	6.20000000E+1	
1047.363300	4.30000000E+1	
1047.851600	4.70000000E+1	
1048.34000	3.80000000E+1	
1048.828100	6.70000000E+1	
1049.316400	5.00000000E+1	
1049.804700	4.80000000E+1	
1050.293000	4.60000000E+1	
1050.781300	4.90000000E+1	
1051.27000	5.50000000E+1	
1051.757800	5.00000000E+1	
1052.246100	4.10000000E+1	
1052.734400	4.30000000E+1	
1053.222700	4.70000000E+1	
1053.710900	5.70000000E+1	
1054.199200	6.20000000E+1	
1054.687500	4.50000000E+1	
1055.175800	5.10000000E+1	
1055.664100	5.40000000E+1	
1056.152300	4.60000000E+1	
1056.640600	6.80000000E+1	
1057.128900	5.30000000E+1	
1057.617200	5.60000000E+1	
1058.105500	3.90000000E+1	
1058.593800	5.10000000E+1	
1059.082000	5.70000000E+1	
1059.57000	3.90000000E+1	
1060.058600	4.60000000E+1	
1060.546900	5.70000000E+1	
1061.035200	6.40000000E+1	
1061.523400	4.60000000E+1	
1062.011700	4.60000000E+1	
1062.5000	6.40000000E+1	
1062.988300	4.80000000E+1	
1063.476600	5.70000000E+1	
1063.964800	6.20000000E+1	
1064.453100	4.50000000E+1	
1064.941400	3.20000000E+1	
1065.43000	4.80000000E+1	
1065.918000	5.10000000E+1	
1066.406300	5.80000000E+1	
1066.894500	5.10000000E+1	
1067.382800	4.70000000E+1	
1067.871100	3.70000000E+1	
1068.359400	5.70000000E+1	
1068.847700	4.70000000E+1	
1069.335900	4.10000000E+1	
1069.824200	4.60000000E+1	
1070.312500	3.60000000E+1	
1070.800800	4.00000000E+1	
1071.289100	4.20000000E+1	
1071.777300	4.20000000E+1	
1072.265600	4.60000000E+1	
1072.753900	4.10000000E+1	
1073.242200	5.60000000E+1	
1073.73000	5.80000000E+1	
1074.218800	4.10000000E+1	
1074.707000	5.40000000E+1	
1075.195300	4.20000000E+1	
1075.683600	5.20000000E+1	
1076.171900	5.30000000E+1	
1076.66000	4.20000000E+1	
1077.148400	4.80000000E+1	
1077.636700	4.90000000E+1	
1078.125000	6.30000000E+1	
1078.613300	5.10000000E+1	
1079.101600	4.60000000E+1	
1079.59000	5.00000000E+1	
1080.078100	5.00000000E+1	
1080.566400	4.50000000E+1	
1081.054700	5.20000000E+1	
1081.543000	4.80000000E+1	
1082.031300	3.30000000E+1	
1082.52000	4.50000000E+1	
1083.007800	5.80000000E+1	
1083.496100	3.60000000E+1	
1083.984400	4.70000000E+1	
1084.472700	4.00000000E+1	
1084.960900	5.40000000E+1	
1085.449200	5.90000000E+1	
1085.937500	5.10000000E+1	
1086.425800	5.40000000E+1	
1086.914100	4.10000000E+1	
1087.402300	5.60000000E+1	
1087.890600	5.60000000E+1	
1088.378900	5.30000000E+1	
1088.867200	4.60000000E+1	
1089.355500	4.10000000E+1	
1089.843800	4.00000000E+1	
1090.332000	5.90000000E+1	
1090.82000	3.60000000E+1	
1091.308600	4.40000000E+1	
1091.796900	4.40000000E+1	
1092.285200	3.80000000E+1	
1092.773400	4.50000000E+1	
1093.261700	4.70000000E+1	
1093.75000	4.80000000E+1	
1094.238300	3.70000000E+1	
1094.726600	4.50000000E+1	
1095.214800	4.40000000E+1	
1095.703100	3.70000000E+1	
1096.191400	4.50000000E+1	
1096.68000	4.70000000E+1	
1097.168000	4.20000000E+1	
1097.656300	3.90000000E+1	
1098.144500	5.50000000E+1	
1098.632800	5.00000000E+1	
1099.121100	5.30000000E+1	
1099.609400	5.60000000E+1	
1100.097700	4.20000000E+1	
1100.585900	5.10000000E+1	
1101.074200	4.90000000E+1	
1101.562500	2.90000000E+1	
1102.050800	5.40000000E+1	
1102.539100	5.50000000E+1	
1103.027300	5.00000000E+1	
1103.515600	4.60000000E+1	
1104.003900	5.20000000E+1	
1104.492200	3.10000000E+1	
1104.98000	5.70000000E+1	
1105.468800	4.00000000E+1	
1105.957000	5.70000000E+1	
1106.445300	4.00000000E+1	
1106.933600	5.20000000E+1	
1107.421900	3.80000000E+1	
1107.91000	4.90000000E+1	
1108.398400	5.00000000E+1	
1108.886700	5.20000000E+1	
1109.375000	4.20000000E+1	
1109.863300	3.60000000E+1	
1110.351600	6.00000000E+1	
1110.84000	5.50000000E+1	
1111.328100	5.30000000E+1	
1111.816400	4.50000000E+1	
1112.304700	4.60000000E+1	
1112.793000	5.40000000E+1	
1113.281300	4.90000000E+1	
1113.77000	4.20000000E+1	
1114.257800	3.00000000E+1	
1114.746100	5.10000000E+1	
1115.234400	4.30000000E+1	
1115.722700	4.30000000E+1	
1116.210900	4.70000000E+1	
1116.699200	3.50000000E+1	
1117.187500	3.70000000E+1	
1117.675800	5.50000000E+1	
1118.164100	4.80000000E+1	
1118.652300	4.60000000E+1	
1119.140600	4.60000000E+1	
1119.628900	5.80000000E+1	
1120.117200	4.30000000E+1	
1120.605500	5.90000000E+1	
1121.093800	4.20000000E+1	
1121.582000	3.90000000E+1	
1122.07000	5.20000000E+1	
1122.558600	4.20000000E+1	
1123.046900	4.90000000E+1	
1123.535200	4.10000000E+1	
1124.023400	4.20000000E+1	
1124.511700	3.80000000E+1	
1125.000	3.70000000E+1	
1125.488300	4.30000000E+1	
1125.976600	5.00000000E+1	
1126.464800	4.80000000E+1	
1126.953100	4.10000000E+1	
1127.441400	3.60000000E+1	
1127.93000	5.70000000E+1	
1128.418000	4.90000000E+1	
1128.906300	4.10000000E+1	
1129.394500	4.70000000E+1	
1129.882800	4.20000000E+1	
1130.371100	3.90000000E+1	
1130.859400	5.40000000E+1	
1131.347700	4.80000000E+1	
1131.835900	4.10000000E+1	
1132.324200	4.80000000E+1	
1132.812500	5.00000000E+1	
1133.300800	3.90000000E+1	
1133.789100	5.00000000E+1	
1134.277300	5.00000000E+1	
1134.765600	5.00000000E+1	
1135.253900	4.30000000E+1	
1135.742200	5.40000000E+1	
1136.23000	6.10000000E+1	
1136.718800	4.30000000E+1	
1137.207000	3.80000000E+1	
1137.695300	5.70000000E+1	
1138.183600	4.50000000E+1	
1138.671900	4.00000000E+1	
1139.16000	5.00000000E+1	
1139.648400	3.90000000E+1	
1140.136700	4.70000000E+1	
1140.625000	6.50000000E+1	
1141.113300	6.30000000E+1	
1141.601600	5.50000000E+1	
1142.09000	4.80000000E+1	
1142.578100	5.30000000E+1	
1143.066400	5.50000000E+1	
1143.554700	4.80000000E+1	
1144.043000	4.80000000E+1	
1144.531300	4.20000000E+1	
1145.02000	5.30000000E+1	
1145.507800	5.30000000E+1	
1145.996100	3.80000000E+1	
1146.484400	3.20000000E+1	
1146.972700	4.50000000E+1	
1147.460900	4.30000000E+1	
1147.949200	5.40000000E+1	
1148.437500	3.60000000E+1	
1148.925800	3.60000000E+1	
1149.414100	4.70000000E+1	
1149.902300	5.40000000E+1	
1150.390600	4.60000000E+1	
1150.878900	4.90000000E+1	
1151.367200	3.90000000E+1	
1151.855500	4.20000000E+1	
1152.343800	4.80000000E+1	
1152.832000	3.60000000E+1	
1153.32000	4.20000000E+1	
1153.808600	5.10000000E+1	
1154.296900	5.10000000E+1	
1154.785200	4.60000000E+1	
1155.273400	4.20000000E+1	
1155.761700	5.10000000E+1	
1156.25000	4.40000000E+1	
1156.738300	3.60000000E+1	
1157.226600	4.10000000E+1	
1157.714800	4.60000000E+1	
1158.203100	4.60000000E+1	
1158.691400	4.00000000E+1	
1159.18000	4.70000000E+1	
1159.668000	4.20000000E+1	
1160.156300	5.00000000E+1	
1160.644500	3.90000000E+1	
1161.132800	3.80000000E+1	
1161.621100	3.70000000E+1	
1162.109400	4.40000000E+1	
1162.597700	4.70000000E+1	
1163.085900	4.90000000E+1	
1163.574200	4.10000000E+1	
1164.062500	4.80000000E+1	
1164.550800	3.90000000E+1	
1165.039100	4.00000000E+1	
1165.527300	4.10000000E+1	
1166.015600	4.90000000E+1	
1166.503900	4.60000000E+1	
1166.992200	4.50000000E+1	
1167.48000	3.10000000E+1	
1167.968800	5.20000000E+1	
1168.457000	5.00000000E+1	
1168.945300	4.80000000E+1	
1169.433600	4.70000000E+1	
1169.921900	5.10000000E+1	
1170.41000	4.60000000E+1	
1170.898400	5.40000000E+1	
1171.386700	4.30000000E+1	
1171.875000	4.40000000E+1	
1172.363300	6.00000000E+1	
1172.851600	4.10000000E+1	
1173.34000	5.60000000E+1	
1173.828100	5.60000000E+1	
1174.316400	5.60000000E+1	
1174.804700	5.00000000E+1	
1175.293000	4.10000000E+1	
1175.781300	3.90000000E+1	
1176.27000	4.20000000E+1	
1176.757800	4.90000000E+1	
1177.246100	5.70000000E+1	
1177.734400	4.50000000E+1	
1178.222700	4.10000000E+1	
1178.710900	4.90000000E+1	
1179.199200	4.60000000E+1	
1179.687500	4.60000000E+1	
1180.175800	4.70000000E+1	
1180.664100	4.80000000E+1	
1181.152300	5.00000000E+1	
1181.640600	4.20000000E+1	
1182.128900	4.30000000E+1	
1182.617200	5.00000000E+1	
1183.105500	5.30000000E+1	
1183.593800	4.10000000E+1	
1184.082000	5.00000000E+1	
1184.57000	5.00000000E+1	
1185.058600	4.70000000E+1	
1185.546900	5.70000000E+1	
1186.035200	4.50000000E+1	
1186.523400	4.50000000E+1	
1187.011700	4.40000000E+1	
1187.5000	4.80000000E+1	
1187.988300	4.60000000E+1	
1188.476600	3.60000000E+1	
1188.964800	4.50000000E+1	
1189.453100	6.60000000E+1	
1189.941400	3.90000000E+1	
1190.43000	5.00000000E+1	
1190.918000	5.70000000E+1	
1191.406300	4.60000000E+1	
1191.894500	3.90000000E+1	
1192.382800	4.70000000E+1	
1192.871100	5.10000000E+1	
1193.359400	4.30000000E+1	
1193.847700	3.60000000E+1	
1194.335900	4.90000000E+1	
1194.824200	3.70000000E+1	
1195.312500	5.60000000E+1	
1195.800800	5.20000000E+1	
1196.289100	4.60000000E+1	
1196.777300	5.00000000E+1	
1197.265600	4.00000000E+1	
1197.753900	5.70000000E+1	
1198.242200	3.30000000E+1	
1198.73000	4.20000000E+1	
1199.218800	5.60000000E+1	
1199.707000	4.50000000E+1	
1200.195300	4.70000000E+1	
1200.683600	4.80000000E+1	
1201.171900	3.70000000E+1	
1201.66000	4.60000000E+1	
1202.148400	4.10000000E+1	
1202.636700	5.10000000E+1	
1203.125000	5.20000000E+1	
1203.613300	4.40000000E+1	
1204.101600	4.00000000E+1	
1204.59000	4.40000000E+1	
1205.078100	4.30000000E+1	
1205.566400	3.90000000E+1	
1206.054700	3.90000000E+1	
1206.543000	5.40000000E+1	
1207.031300	4.30000000E+1	
1207.52000	4.20000000E+1	
1208.007800	4.20000000E+1	
1208.496100	3.80000000E+1	
1208.984400	4.30000000E+1	
1209.472700	4.70000000E+1	
1209.960900	5.30000000E+1	
1210.449200	4.20000000E+1	
1210.937500	5.90000000E+1	
1211.425800	4.90000000E+1	
1211.914100	4.60000000E+1	
1212.402300	6.00000000E+1	
1212.890600	4.90000000E+1	
1213.378900	4.40000000E+1	
1213.867200	4.90000000E+1	
1214.355500	4.30000000E+1	
1214.843800	4.10000000E+1	
1215.332000	4.70000000E+1	
1215.82000	4.50000000E+1	
1216.308600	4.50000000E+1	
1216.796900	4.70000000E+1	
1217.285200	4.70000000E+1	
1217.773400	4.80000000E+1	
1218.261700	4.90000000E+1	
1218.75000	5.30000000E+1	
1219.238300	4.20000000E+1	
1219.726600	4.20000000E+1	
1220.214800	4.70000000E+1	
1220.703100	5.40000000E+1	
1221.191400	3.90000000E+1	
1221.68000	5.00000000E+1	
1222.168000	3.20000000E+1	
1222.656300	4.50000000E+1	
1223.144500	4.30000000E+1	
1223.632800	4.30000000E+1	
1224.121100	5.50000000E+1	
1224.609400	3.00000000E+1	
1225.097700	4.90000000E+1	
1225.585900	5.20000000E+1	
1226.074200	3.80000000E+1	
1226.562500	3.50000000E+1	
1227.050800	4.70000000E+1	
1227.539100	5.10000000E+1	
1228.027300	5.10000000E+1	
1228.515600	4.90000000E+1	
1229.003900	3.10000000E+1	
1229.492200	3.00000000E+1	
1229.98000	5.20000000E+1	
1230.468800	5.30000000E+1	
1230.957000	3.90000000E+1	
1231.445300	3.80000000E+1	
1231.933600	4.60000000E+1	
1232.421900	3.00000000E+1	
1232.91000	5.30000000E+1	
1233.398400	3.90000000E+1	
1233.886700	3.90000000E+1	
1234.375000	4.50000000E+1	
1234.863300	5.10000000E+1	
1235.351600	4.00000000E+1	
1235.84000	3.70000000E+1	
1236.328100	3.70000000E+1	
1236.816400	5.20000000E+1	
1237.304700	3.20000000E+1	
1237.793000	3.80000000E+1	
1238.281300	4.50000000E+1	
1238.77000	3.90000000E+1	
1239.257800	4.60000000E+1	
1239.746100	4.80000000E+1	
1240.234400	4.70000000E+1	
1240.722700	4.80000000E+1	
1241.210900	3.00000000E+1	
1241.699200	4.70000000E+1	
1242.187500	4.40000000E+1	
1242.675800	3.60000000E+1	
1243.164100	4.50000000E+1	
1243.652300	5.50000000E+1	
1244.140600	3.90000000E+1	
1244.628900	5.10000000E+1	
1245.117200	3.90000000E+1	
1245.605500	3.30000000E+1	
1246.093800	3.70000000E+1	
1246.582000	5.30000000E+1	
1247.07000	2.90000000E+1	
1247.558600	3.60000000E+1	
1248.046900	4.40000000E+1	
1248.535200	4.20000000E+1	
1249.023400	4.40000000E+1	
1249.511700	3.60000000E+1	
1250.00	4.20000000E+1	
1250.488300	3.60000000E+1	
1250.976600	4.10000000E+1	
1251.464800	3.80000000E+1	
1251.953100	4.30000000E+1	
1252.441400	4.50000000E+1	
1252.93000	4.90000000E+1	
1253.418000	4.00000000E+1	
1253.906300	4.60000000E+1	
1254.394500	4.10000000E+1	
1254.882800	4.30000000E+1	
1255.371100	5.90000000E+1	
1255.859400	4.60000000E+1	
1256.347700	3.60000000E+1	
1256.835900	4.40000000E+1	
1257.324200	4.50000000E+1	
1257.812500	4.30000000E+1	
1258.300800	4.00000000E+1	
1258.789100	4.40000000E+1	
1259.277300	4.50000000E+1	
1259.765600	4.00000000E+1	
1260.253900	4.00000000E+1	
1260.742200	3.30000000E+1	
1261.23000	3.80000000E+1	
1261.718800	4.50000000E+1	
1262.207000	4.70000000E+1	
1262.695300	4.10000000E+1	
1263.183600	4.40000000E+1	
1263.671900	4.50000000E+1	
1264.16000	4.60000000E+1	
1264.648400	4.20000000E+1	
1265.136700	5.00000000E+1	
1265.625000	2.80000000E+1	
1266.113300	4.00000000E+1	
1266.601600	4.50000000E+1	
1267.09000	4.80000000E+1	
1267.578100	5.20000000E+1	
1268.066400	4.20000000E+1	
1268.554700	3.30000000E+1	
1269.043000	3.90000000E+1	
1269.531300	4.10000000E+1	
1270.02000	5.70000000E+1	
1270.507800	4.30000000E+1	
1270.996100	4.50000000E+1	
1271.484400	3.60000000E+1	
1271.972700	4.70000000E+1	
1272.460900	3.40000000E+1	
1272.949200	4.20000000E+1	
1273.437500	4.00000000E+1	
1273.925800	4.90000000E+1	
1274.414100	5.80000000E+1	
1274.902300	3.90000000E+1	
1275.390600	4.00000000E+1	
1275.878900	3.40000000E+1	
1276.367200	4.80000000E+1	
1276.855500	3.90000000E+1	
1277.343800	4.80000000E+1	
1277.832000	4.50000000E+1	
1278.32000	4.20000000E+1	
1278.808600	4.70000000E+1	
1279.296900	4.30000000E+1	
1279.785200	4.70000000E+1	
1280.273400	3.80000000E+1	
1280.761700	4.70000000E+1	
1281.25000	4.10000000E+1	
1281.738300	4.50000000E+1	
1282.226600	4.20000000E+1	
1282.714800	3.30000000E+1	
1283.203100	2.70000000E+1	
1283.691400	3.70000000E+1	
1284.18000	4.10000000E+1	
1284.668000	4.00000000E+1	
1285.156300	4.10000000E+1	
1285.644500	4.20000000E+1	
1286.132800	4.20000000E+1	
1286.621100	4.20000000E+1	
1287.109400	5.10000000E+1	
1287.597700	4.50000000E+1	
1288.085900	4.50000000E+1	
1288.574200	3.50000000E+1	
1289.062500	3.30000000E+1	
1289.550800	4.00000000E+1	
1290.039100	4.30000000E+1	
1290.527300	4.70000000E+1	
1291.015600	2.90000000E+1	
1291.503900	3.80000000E+1	
1291.992200	4.20000000E+1	
1292.48000	3.70000000E+1	
1292.968800	5.40000000E+1	
1293.457000	4.00000000E+1	
1293.945300	3.10000000E+1	
1294.433600	4.30000000E+1	
1294.921900	3.50000000E+1	
1295.41000	4.10000000E+1	
1295.898400	4.60000000E+1	
1296.386700	3.40000000E+1	
1296.875000	3.60000000E+1	
1297.363300	3.50000000E+1	
1297.851600	4.70000000E+1	
1298.34000	5.20000000E+1	
1298.828100	4.50000000E+1	
1299.316400	2.60000000E+1	
1299.804700	3.60000000E+1	
1300.293000	4.30000000E+1	
1300.781300	5.40000000E+1	
1301.27000	3.60000000E+1	
1301.757800	4.70000000E+1	
1302.246100	4.30000000E+1	
1302.734400	4.60000000E+1	
1303.222700	3.70000000E+1	
1303.710900	4.70000000E+1	
1304.199200	4.30000000E+1	
1304.687500	4.70000000E+1	
1305.175800	3.80000000E+1	
1305.664100	5.00000000E+1	
1306.152300	3.00000000E+1	
1306.640600	3.10000000E+1	
1307.128900	4.00000000E+1	
1307.617200	5.10000000E+1	
1308.105500	4.80000000E+1	
1308.593800	4.10000000E+1	
1309.082000	4.00000000E+1	
1309.57000	4.90000000E+1	
1310.058600	5.60000000E+1	
1310.546900	4.30000000E+1	
1311.035200	4.10000000E+1	
1311.523400	4.40000000E+1	
1312.011700	2.60000000E+1	
1312.5000	3.60000000E+1	
1312.988300	2.80000000E+1	
1313.476600	3.20000000E+1	
1313.964800	4.10000000E+1	
1314.453100	4.10000000E+1	
1314.941400	3.60000000E+1	
1315.43000	3.40000000E+1	
1315.918000	3.60000000E+1	
1316.406300	3.80000000E+1	
1316.894500	4.50000000E+1	
1317.382800	4.00000000E+1	
1317.871100	4.90000000E+1	
1318.359400	3.30000000E+1	
1318.847700	5.10000000E+1	
1319.335900	5.30000000E+1	
1319.824200	3.70000000E+1	
1320.312500	5.20000000E+1	
1320.800800	4.30000000E+1	
1321.289100	5.10000000E+1	
1321.777300	3.70000000E+1	
1322.265600	4.50000000E+1	
1322.753900	4.30000000E+1	
1323.242200	3.60000000E+1	
1323.73000	4.00000000E+1	
1324.218800	4.50000000E+1	
1324.707000	4.00000000E+1	
1325.195300	4.00000000E+1	
1325.683600	4.30000000E+1	
1326.171900	3.40000000E+1	
1326.66000	4.20000000E+1	
1327.148400	5.50000000E+1	
1327.636700	4.30000000E+1	
1328.125000	5.00000000E+1	
1328.613300	2.40000000E+1	
1329.101600	3.20000000E+1	
1329.59000	3.80000000E+1	
1330.078100	4.60000000E+1	
1330.566400	4.10000000E+1	
1331.054700	3.70000000E+1	
1331.543000	4.20000000E+1	
1332.031300	3.40000000E+1	
1332.52000	3.70000000E+1	
1333.007800	3.70000000E+1	
1333.496100	3.80000000E+1	
1333.984400	4.00000000E+1	
1334.472700	3.20000000E+1	
1334.960900	3.30000000E+1	
1335.449200	4.60000000E+1	
1335.937500	3.50000000E+1	
1336.425800	3.80000000E+1	
1336.914100	5.20000000E+1	
1337.402300	4.60000000E+1	
1337.890600	3.90000000E+1	
1338.378900	4.20000000E+1	
1338.867200	3.50000000E+1	
1339.355500	3.60000000E+1	
1339.843800	4.50000000E+1	
1340.332000	3.30000000E+1	
1340.82000	3.40000000E+1	
1341.308600	4.20000000E+1	
1341.796900	4.70000000E+1	
1342.285200	3.70000000E+1	
1342.773400	3.50000000E+1	
1343.261700	4.40000000E+1	
1343.75000	3.60000000E+1	
1344.238300	3.80000000E+1	
1344.726600	3.40000000E+1	
1345.214800	3.60000000E+1	
1345.703100	3.40000000E+1	
1346.191400	4.40000000E+1	
1346.68000	4.30000000E+1	
1347.168000	3.90000000E+1	
1347.656300	4.70000000E+1	
1348.144500	4.70000000E+1	
1348.632800	4.80000000E+1	
1349.121100	4.70000000E+1	
1349.609400	3.30000000E+1	
1350.097700	4.30000000E+1	
1350.585900	3.20000000E+1	
1351.074200	3.20000000E+1	
1351.562500	3.90000000E+1	
1352.050800	3.40000000E+1	
1352.539100	2.40000000E+1	
1353.027300	3.80000000E+1	
1353.515600	4.30000000E+1	
1354.003900	3.30000000E+1	
1354.492200	4.10000000E+1	
1354.98000	4.40000000E+1	
1355.468800	3.40000000E+1	
1355.957000	5.00000000E+1	
1356.445300	4.20000000E+1	
1356.933600	4.30000000E+1	
1357.421900	4.10000000E+1	
1357.91000	3.60000000E+1	
1358.398400	4.20000000E+1	
1358.886700	4.60000000E+1	
1359.375000	3.20000000E+1	
1359.863300	2.90000000E+1	
1360.351600	3.10000000E+1	
1360.84000	3.90000000E+1	
1361.328100	4.00000000E+1	
1361.816400	4.80000000E+1	
1362.304700	2.90000000E+1	
1362.793000	4.30000000E+1	
1363.281300	4.10000000E+1	
1363.77000	4.10000000E+1	
1364.257800	3.60000000E+1	
1364.746100	3.80000000E+1	
1365.234400	4.60000000E+1	
1365.722700	4.00000000E+1	
1366.210900	3.90000000E+1	
1366.699200	4.30000000E+1	
1367.187500	4.20000000E+1	
1367.675800	5.00000000E+1	
1368.164100	4.40000000E+1	
1368.652300	3.60000000E+1	
1369.140600	4.10000000E+1	
1369.628900	3.20000000E+1	
1370.117200	2.70000000E+1	
1370.605500	4.70000000E+1	
1371.093800	3.30000000E+1	
1371.582000	4.40000000E+1	
1372.07000	4.30000000E+1	
1372.558600	3.20000000E+1	
1373.046900	3.90000000E+1	
1373.535200	4.00000000E+1	
1374.023400	4.00000000E+1	
1374.511700	4.60000000E+1	
1375.000	4.60000000E+1	
1375.488300	4.10000000E+1	
1375.976600	4.00000000E+1	
1376.464800	3.60000000E+1	
1376.953100	4.10000000E+1	
1377.441400	3.60000000E+1	
1377.93000	3.40000000E+1	
1378.418000	4.60000000E+1	
1378.906300	2.60000000E+1	
1379.394500	3.90000000E+1	
1379.882800	3.60000000E+1	
1380.371100	4.30000000E+1	
1380.859400	4.70000000E+1	
1381.347700	4.00000000E+1	
1381.835900	4.50000000E+1	
1382.324200	4.10000000E+1	
1382.812500	3.20000000E+1	
1383.300800	3.90000000E+1	
1383.789100	3.40000000E+1	
1384.277300	4.60000000E+1	
1384.765600	4.00000000E+1	
1385.253900	3.90000000E+1	
1385.742200	3.60000000E+1	
1386.23000	3.80000000E+1	
1386.718800	3.10000000E+1	
1387.207000	4.40000000E+1	
1387.695300	3.40000000E+1	
1388.183600	4.80000000E+1	
1388.671900	3.20000000E+1	
1389.16000	3.20000000E+1	
1389.648400	4.00000000E+1	
1390.136700	3.60000000E+1	
1390.625000	2.70000000E+1	
1391.113300	4.00000000E+1	
1391.601600	2.80000000E+1	
1392.09000	4.10000000E+1	
1392.578100	4.30000000E+1	
1393.066400	3.50000000E+1	
1393.554700	4.20000000E+1	
1394.043000	4.10000000E+1	
1394.531300	4.40000000E+1	
1395.02000	4.60000000E+1	
1395.507800	3.40000000E+1	
1395.996100	3.70000000E+1	
1396.484400	5.30000000E+1	
1396.972700	3.50000000E+1	
1397.460900	3.20000000E+1	
1397.949200	3.70000000E+1	
1398.437500	2.80000000E+1	
1398.925800	3.70000000E+1	
1399.414100	4.10000000E+1	
1399.902300	3.90000000E+1	
1400.390600	4.80000000E+1	
1400.878900	4.40000000E+1	
1401.367200	3.30000000E+1	
1401.855500	3.80000000E+1	
1402.343800	4.30000000E+1	
1402.832000	4.70000000E+1	
1403.32000	3.40000000E+1	
1403.808600	3.20000000E+1	
1404.296900	3.90000000E+1	
1404.785200	4.50000000E+1	
1405.273400	3.70000000E+1	
1405.761700	2.60000000E+1	
1406.25000	3.50000000E+1	
1406.738300	5.10000000E+1	
1407.226600	3.50000000E+1	
1407.714800	4.00000000E+1	
1408.203100	4.40000000E+1	
1408.691400	5.00000000E+1	
1409.18000	3.40000000E+1	
1409.668000	4.70000000E+1	
1410.156300	3.10000000E+1	
1410.644500	3.40000000E+1	
1411.132800	3.50000000E+1	
1411.621100	3.70000000E+1	
1412.109400	3.00000000E+1	
1412.597700	3.40000000E+1	
1413.085900	4.10000000E+1	
1413.574200	3.30000000E+1	
1414.062500	4.20000000E+1	
1414.550800	4.00000000E+1	
1415.039100	2.90000000E+1	
1415.527300	4.20000000E+1	
1416.015600	3.00000000E+1	
1416.503900	3.90000000E+1	
1416.992200	3.20000000E+1	
1417.48000	3.90000000E+1	
1417.968800	3.00000000E+1	
1418.457000	3.90000000E+1	
1418.945300	3.90000000E+1	
1419.433600	2.90000000E+1	
1419.921900	4.00000000E+1	
1420.41000	4.00000000E+1	
1420.898400	3.50000000E+1	
1421.386700	5.50000000E+1	
1421.875000	4.20000000E+1	
1422.363300	2.00000000E+1	
1422.851600	2.90000000E+1	
1423.34000	3.90000000E+1	
1423.828100	3.30000000E+1	
1424.316400	3.50000000E+1	
1424.804700	4.30000000E+1	
1425.293000	4.00000000E+1	
1425.781300	3.40000000E+1	
1426.27000	3.60000000E+1	
1426.757800	3.70000000E+1	
1427.246100	4.00000000E+1	
1427.734400	2.50000000E+1	
1428.222700	4.40000000E+1	
1428.710900	4.20000000E+1	
1429.199200	2.80000000E+1	
1429.687500	4.20000000E+1	
1430.175800	3.20000000E+1	
1430.664100	4.10000000E+1	
1431.152300	4.40000000E+1	
1431.640600	3.00000000E+1	
1432.128900	3.80000000E+1	
1432.617200	3.90000000E+1	
1433.105500	4.60000000E+1	
1433.593800	4.30000000E+1	
1434.082000	3.50000000E+1	
1434.57000	3.80000000E+1	
1435.058600	4.30000000E+1	
1435.546900	3.50000000E+1	
1436.035200	3.70000000E+1	
1436.523400	4.10000000E+1	
1437.011700	3.00000000E+1	
1437.5000	3.70000000E+1	
1437.988300	4.50000000E+1	
1438.476600	3.40000000E+1	
1438.964800	3.10000000E+1	
1439.453100	4.60000000E+1	
1439.941400	2.90000000E+1	
1440.43000	3.60000000E+1	
1440.918000	3.50000000E+1	
1441.406300	3.40000000E+1	
1441.894500	4.60000000E+1	
1442.382800	4.10000000E+1	
1442.871100	4.90000000E+1	
1443.359400	4.50000000E+1	
1443.847700	3.40000000E+1	
1444.335900	4.00000000E+1	
1444.824200	3.90000000E+1	
1445.312500	3.90000000E+1	
1445.800800	3.30000000E+1	
1446.289100	3.20000000E+1	
1446.777300	4.10000000E+1	
1447.265600	3.90000000E+1	
1447.753900	4.90000000E+1	
1448.242200	4.10000000E+1	
1448.73000	4.80000000E+1	
1449.218800	3.30000000E+1	
1449.707000	3.60000000E+1	
1450.195300	3.30000000E+1	
1450.683600	2.50000000E+1	
1451.171900	3.80000000E+1	
1451.66000	4.80000000E+1	
1452.148400	3.80000000E+1	
1452.636700	4.20000000E+1	
1453.125000	3.40000000E+1	
1453.613300	3.70000000E+1	
1454.101600	3.90000000E+1	
1454.59000	3.90000000E+1	
1455.078100	4.50000000E+1	
1455.566400	5.30000000E+1	
1456.054700	4.60000000E+1	
1456.543000	3.50000000E+1	
1457.031300	2.90000000E+1	
1457.52000	4.50000000E+1	
1458.007800	3.50000000E+1	
1458.496100	5.40000000E+1	
1458.984400	2.60000000E+1	
1459.472700	4.00000000E+1	
1459.960900	3.00000000E+1	
1460.449200	4.80000000E+1	
1460.937500	4.10000000E+1	
1461.425800	3.80000000E+1	
1461.914100	3.30000000E+1	
1462.402300	3.80000000E+1	
1462.890600	4.20000000E+1	
1463.378900	3.50000000E+1	
1463.867200	3.60000000E+1	
1464.355500	3.50000000E+1	
1464.843800	3.00000000E+1	
1465.332000	3.80000000E+1	
1465.82000	3.60000000E+1	
1466.308600	3.80000000E+1	
1466.796900	4.30000000E+1	
1467.285200	3.40000000E+1	
1467.773400	4.10000000E+1	
1468.261700	4.30000000E+1	
1468.75000	2.60000000E+1	
1469.238300	3.50000000E+1	
1469.726600	3.60000000E+1	
1470.214800	2.90000000E+1	
1470.703100	2.80000000E+1	
1471.191400	3.50000000E+1	
1471.68000	3.60000000E+1	
1472.168000	4.00000000E+1	
1472.656300	3.20000000E+1	
1473.144500	3.90000000E+1	
1473.632800	3.60000000E+1	
1474.121100	3.10000000E+1	
1474.609400	3.10000000E+1	
1475.097700	4.30000000E+1	
1475.585900	3.70000000E+1	
1476.074200	4.20000000E+1	
1476.562500	4.40000000E+1	
1477.050800	4.20000000E+1	
1477.539100	3.40000000E+1	
1478.027300	4.10000000E+1	
1478.515600	2.70000000E+1	
1479.003900	3.40000000E+1	
1479.492200	3.70000000E+1	
1479.98000	3.90000000E+1	
1480.468800	3.50000000E+1	
1480.957000	2.90000000E+1	
1481.445300	2.60000000E+1	
1481.933600	3.50000000E+1	
1482.421900	2.80000000E+1	
1482.91000	3.70000000E+1	
1483.398400	3.80000000E+1	
1483.886700	4.20000000E+1	
1484.375000	3.60000000E+1	
1484.863300	3.30000000E+1	
1485.351600	3.50000000E+1	
1485.84000	3.70000000E+1	
1486.328100	3.40000000E+1	
1486.816400	3.00000000E+1	
1487.304700	4.30000000E+1	
1487.793000	3.10000000E+1	
1488.281300	4.80000000E+1	
1488.77000	4.60000000E+1	
1489.257800	3.30000000E+1	
1489.746100	3.70000000E+1	
1490.234400	2.70000000E+1	
1490.722700	4.60000000E+1	
1491.210900	3.20000000E+1	
1491.699200	3.20000000E+1	
1492.187500	3.80000000E+1	
1492.675800	2.80000000E+1	
1493.164100	3.70000000E+1	
1493.652300	4.20000000E+1	
1494.140600	2.80000000E+1	
1494.628900	2.40000000E+1	
1495.117200	3.90000000E+1	
1495.605500	2.70000000E+1	
1496.093800	2.60000000E+1	
1496.582000	2.60000000E+1	
1497.07000	4.40000000E+1	
1497.558600	3.80000000E+1	
1498.046900	2.50000000E+1	
1498.535200	2.70000000E+1	
1499.023400	4.30000000E+1	
1499.511700	3.50000000E+1	
1500.00	4.40000000E+1	
1500.488300	4.70000000E+1	
1500.976600	4.60000000E+1	
1501.464800	4.30000000E+1	
1501.953100	3.70000000E+1	
1502.441400	2.40000000E+1	
1502.93000	3.40000000E+1	
1503.418000	3.20000000E+1	
1503.906300	2.70000000E+1	
1504.394500	2.30000000E+1	
1504.882800	3.30000000E+1	
1505.371100	3.00000000E+1	
1505.859400	3.60000000E+1	
1506.347700	4.10000000E+1	
1506.835900	3.50000000E+1	
1507.324200	2.90000000E+1	
1507.812500	3.60000000E+1	
1508.300800	2.40000000E+1	
1508.789100	3.40000000E+1	
1509.277300	3.80000000E+1	
1509.765600	3.80000000E+1	
1510.253900	3.10000000E+1	
1510.742200	4.00000000E+1	
1511.23000	4.40000000E+1	
1511.718800	3.50000000E+1	
1512.207000	3.90000000E+1	
1512.695300	3.70000000E+1	
1513.183600	3.70000000E+1	
1513.671900	3.50000000E+1	
1514.16000	3.30000000E+1	
1514.648400	2.60000000E+1	
1515.136700	3.50000000E+1	
1515.625000	3.30000000E+1	
1516.113300	3.60000000E+1	
1516.601600	2.90000000E+1	
1517.09000	4.70000000E+1	
1517.578100	3.70000000E+1	
1518.066400	3.20000000E+1	
1518.554700	3.20000000E+1	
1519.043000	3.70000000E+1	
1519.531300	3.60000000E+1	
1520.02000	2.90000000E+1	
1520.507800	3.00000000E+1	
1520.996100	4.00000000E+1	
1521.484400	3.00000000E+1	
1521.972700	4.60000000E+1	
1522.460900	3.60000000E+1	
1522.949200	2.70000000E+1	
1523.437500	3.10000000E+1	
1523.925800	3.50000000E+1	
1524.414100	3.00000000E+1	
1524.902300	2.30000000E+1	
1525.390600	3.00000000E+1	
1525.878900	3.90000000E+1	
1526.367200	3.80000000E+1	
1526.855500	3.50000000E+1	
1527.343800	3.20000000E+1	
1527.832000	2.70000000E+1	
1528.32000	3.40000000E+1	
1528.808600	2.50000000E+1	
1529.296900	3.40000000E+1	
1529.785200	3.60000000E+1	
1530.273400	3.50000000E+1	
1530.761700	2.50000000E+1	
1531.25000	4.20000000E+1	
1531.738300	3.00000000E+1	
1532.226600	2.70000000E+1	
1532.714800	3.30000000E+1	
1533.203100	2.90000000E+1	
1533.691400	2.90000000E+1	
1534.18000	3.70000000E+1	
1534.668000	2.80000000E+1	
1535.156300	2.90000000E+1	
1535.644500	2.80000000E+1	
1536.132800	3.50000000E+1	
1536.621100	3.70000000E+1	
1537.109400	3.20000000E+1	
1537.597700	4.30000000E+1	
1538.085900	4.00000000E+1	
1538.574200	2.50000000E+1	
1539.062500	3.70000000E+1	
1539.550800	4.00000000E+1	
1540.039100	4.80000000E+1	
1540.527300	3.20000000E+1	
1541.015600	4.30000000E+1	
1541.503900	3.30000000E+1	
1541.992200	4.60000000E+1	
1542.48000	3.30000000E+1	
1542.968800	5.20000000E+1	
1543.457000	3.20000000E+1	
1543.945300	3.50000000E+1	
1544.433600	4.60000000E+1	
1544.921900	3.30000000E+1	
1545.41000	3.00000000E+1	
1545.898400	3.40000000E+1	
1546.386700	3.00000000E+1	
1546.875000	2.60000000E+1	
1547.363300	3.60000000E+1	
1547.851600	3.50000000E+1	
1548.34000	3.90000000E+1	
1548.828100	3.80000000E+1	
1549.316400	4.60000000E+1	
1549.804700	4.00000000E+1	
1550.293000	3.40000000E+1	
1550.781300	3.70000000E+1	
1551.27000	3.70000000E+1	
1551.757800	3.40000000E+1	
1552.246100	3.10000000E+1	
1552.734400	2.60000000E+1	
1553.222700	3.00000000E+1	
1553.710900	3.40000000E+1	
1554.199200	3.30000000E+1	
1554.687500	3.10000000E+1	
1555.175800	2.80000000E+1	
1555.664100	2.50000000E+1	
1556.152300	2.10000000E+1	
1556.640600	2.70000000E+1	
1557.128900	3.20000000E+1	
1557.617200	2.10000000E+1	
1558.105500	3.60000000E+1	
1558.593800	4.30000000E+1	
1559.082000	2.90000000E+1	
1559.57000	3.00000000E+1	
1560.058600	3.60000000E+1	
1560.546900	2.60000000E+1	
1561.035200	3.00000000E+1	
1561.523400	2.90000000E+1	
1562.011700	2.80000000E+1	
1562.5000	3.50000000E+1	
1562.988300	2.70000000E+1	
1563.476600	2.80000000E+1	
1563.964800	3.50000000E+1	
1564.453100	2.60000000E+1	
1564.941400	3.00000000E+1	
1565.43000	3.00000000E+1	
1565.918000	4.30000000E+1	
1566.406300	4.00000000E+1	
1566.894500	3.90000000E+1	
1567.382800	2.60000000E+1	
1567.871100	3.70000000E+1	
1568.359400	2.60000000E+1	
1568.847700	2.20000000E+1	
1569.335900	3.10000000E+1	
1569.824200	2.80000000E+1	
1570.312500	3.90000000E+1	
1570.800800	2.80000000E+1	
1571.289100	3.20000000E+1	
1571.777300	4.10000000E+1	
1572.265600	3.10000000E+1	
1572.753900	3.20000000E+1	
1573.242200	4.00000000E+1	
1573.73000	2.60000000E+1	
1574.218800	3.10000000E+1	
1574.707000	3.00000000E+1	
1575.195300	3.60000000E+1	
1575.683600	3.70000000E+1	
1576.171900	4.20000000E+1	
1576.66000	3.30000000E+1	
1577.148400	3.40000000E+1	
1577.636700	3.10000000E+1	
1578.125000	3.30000000E+1	
1578.613300	3.90000000E+1	
1579.101600	2.10000000E+1	
1579.59000	3.40000000E+1	
1580.078100	3.70000000E+1	
1580.566400	2.50000000E+1	
1581.054700	3.70000000E+1	
1581.543000	3.30000000E+1	
1582.031300	3.70000000E+1	
1582.52000	3.20000000E+1	
1583.007800	3.10000000E+1	
1583.496100	3.00000000E+1	
1583.984400	3.50000000E+1	
1584.472700	2.60000000E+1	
1584.960900	4.10000000E+1	
1585.449200	1.90000000E+1	
1585.937500	2.40000000E+1	
1586.425800	3.50000000E+1	
1586.914100	3.60000000E+1	
1587.402300	3.30000000E+1	
1587.890600	3.30000000E+1	
1588.378900	2.00000000E+1	
1588.867200	3.20000000E+1	
1589.355500	2.20000000E+1	
1589.843800	3.60000000E+1	
1590.332000	4.00000000E+1	
1590.82000	3.50000000E+1	
1591.308600	4.30000000E+1	
1591.796900	3.10000000E+1	
1592.285200	3.00000000E+1	
1592.773400	3.50000000E+1	
1593.261700	3.70000000E+1	
1593.75000	3.50000000E+1	
1594.238300	4.70000000E+1	
1594.726600	3.10000000E+1	
1595.214800	2.40000000E+1	
1595.703100	3.50000000E+1	
1596.191400	3.70000000E+1	
1596.68000	4.00000000E+1	
1597.168000	2.80000000E+1	
1597.656300	3.10000000E+1	
1598.144500	3.00000000E+1	
1598.632800	3.40000000E+1	
1599.121100	3.50000000E+1	
1599.609400	3.90000000E+1	
1600.097700	3.10000000E+1	
1600.585900	2.80000000E+1	
1601.074200	3.60000000E+1	
1601.562500	3.40000000E+1	
1602.050800	3.20000000E+1	
1602.539100	2.80000000E+1	
1603.027300	3.50000000E+1	
1603.515600	2.50000000E+1	
1604.003900	2.60000000E+1	
1604.492200	2.50000000E+1	
1604.98000	3.60000000E+1	
1605.468800	2.90000000E+1	
1605.957000	2.30000000E+1	
1606.445300	2.40000000E+1	
1606.933600	3.20000000E+1	
1607.421900	3.60000000E+1	
1607.91000	3.10000000E+1	
1608.398400	3.10000000E+1	
1608.886700	3.40000000E+1	
1609.375000	3.40000000E+1	
1609.863300	3.60000000E+1	
1610.351600	4.30000000E+1	
1610.84000	3.50000000E+1	
1611.328100	3.20000000E+1	
1611.816400	3.20000000E+1	
1612.304700	2.70000000E+1	
1612.793000	3.20000000E+1	
1613.281300	3.20000000E+1	
1613.77000	3.40000000E+1	
1614.257800	3.90000000E+1	
1614.746100	2.00000000E+1	
1615.234400	3.80000000E+1	
1615.722700	3.60000000E+1	
1616.210900	3.70000000E+1	
1616.699200	2.80000000E+1	
1617.187500	3.20000000E+1	
1617.675800	3.00000000E+1	
1618.164100	3.80000000E+1	
1618.652300	2.30000000E+1	
1619.140600	2.90000000E+1	
1619.628900	2.10000000E+1	
1620.117200	2.70000000E+1	
1620.605500	2.90000000E+1	
1621.093800	2.60000000E+1	
1621.582000	3.10000000E+1	
1622.07000	2.90000000E+1	
1622.558600	3.20000000E+1	
1623.046900	3.70000000E+1	
1623.535200	3.50000000E+1	
1624.023400	2.90000000E+1	
1624.511700	3.90000000E+1	
1625.000	2.20000000E+1	
1625.488300	3.40000000E+1	
1625.976600	4.00000000E+1	
1626.464800	4.30000000E+1	
1626.953100	3.40000000E+1	
1627.441400	3.80000000E+1	
1627.93000	3.00000000E+1	
1628.418000	4.20000000E+1	
1628.906300	4.20000000E+1	
1629.394500	3.00000000E+1	
1629.882800	2.90000000E+1	
1630.371100	2.70000000E+1	
1630.859400	3.60000000E+1	
1631.347700	2.90000000E+1	
1631.835900	4.10000000E+1	
1632.324200	4.00000000E+1	
1632.812500	3.00000000E+1	
1633.300800	2.30000000E+1	
1633.789100	3.20000000E+1	
1634.277300	3.80000000E+1	
1634.765600	3.30000000E+1	
1635.253900	3.60000000E+1	
1635.742200	3.00000000E+1	
1636.23000	2.80000000E+1	
1636.718800	3.20000000E+1	
1637.207000	3.40000000E+1	
1637.695300	2.60000000E+1	
1638.183600	2.60000000E+1	
1638.671900	3.50000000E+1	
1639.16000	3.70000000E+1	
1639.648400	4.00000000E+1	
1640.136700	2.80000000E+1	
1640.625000	3.10000000E+1	
1641.113300	2.60000000E+1	
1641.601600	3.00000000E+1	
1642.09000	2.20000000E+1	
1642.578100	3.40000000E+1	
1643.066400	3.40000000E+1	
1643.554700	3.40000000E+1	
1644.043000	3.60000000E+1	
1644.531300	3.20000000E+1	
1645.02000	3.80000000E+1	
1645.507800	2.20000000E+1	
1645.996100	4.00000000E+1	
1646.484400	2.90000000E+1	
1646.972700	3.60000000E+1	
1647.460900	2.80000000E+1	
1647.949200	3.60000000E+1	
1648.437500	2.60000000E+1	
1648.925800	4.30000000E+1	
1649.414100	2.80000000E+1	
1649.902300	2.80000000E+1	
1650.390600	2.50000000E+1	
1650.878900	3.50000000E+1	
1651.367200	2.60000000E+1	
1651.855500	2.80000000E+1	
1652.343800	3.50000000E+1	
1652.832000	3.80000000E+1	
1653.32000	3.10000000E+1	
1653.808600	2.50000000E+1	
1654.296900	3.70000000E+1	
1654.785200	3.00000000E+1	
1655.273400	2.40000000E+1	
1655.761700	3.50000000E+1	
1656.25000	3.70000000E+1	
1656.738300	3.80000000E+1	
1657.226600	2.90000000E+1	
1657.714800	3.00000000E+1	
1658.203100	3.70000000E+1	
1658.691400	3.50000000E+1	
1659.18000	2.90000000E+1	
1659.668000	2.60000000E+1	
1660.156300	4.10000000E+1	
1660.644500	3.30000000E+1	
1661.132800	4.20000000E+1	
1661.621100	3.60000000E+1	
1662.109400	3.80000000E+1	
1662.597700	2.70000000E+1	
1663.085900	3.10000000E+1	
1663.574200	2.40000000E+1	
1664.062500	3.60000000E+1	
1664.550800	3.20000000E+1	
1665.039100	4.10000000E+1	
1665.527300	2.50000000E+1	
1666.015600	3.50000000E+1	
1666.503900	3.30000000E+1	
1666.992200	3.40000000E+1	
1667.48000	2.70000000E+1	
1667.968800	3.00000000E+1	
1668.457000	3.60000000E+1	
1668.945300	3.40000000E+1	
1669.433600	2.60000000E+1	
1669.921900	3.40000000E+1	
1670.41000	3.10000000E+1	
1670.898400	2.20000000E+1	
1671.386700	2.40000000E+1	
1671.875000	2.70000000E+1	
1672.363300	2.60000000E+1	
1672.851600	3.50000000E+1	
1673.34000	2.70000000E+1	
1673.828100	3.30000000E+1	
1674.316400	2.60000000E+1	
1674.804700	3.80000000E+1	
1675.293000	3.00000000E+1	
1675.781300	2.30000000E+1	
1676.27000	3.00000000E+1	
1676.757800	3.30000000E+1	
1677.246100	3.70000000E+1	
1677.734400	3.10000000E+1	
1678.222700	3.10000000E+1	
1678.710900	2.60000000E+1	
1679.199200	3.10000000E+1	
1679.687500	3.20000000E+1	
1680.175800	3.30000000E+1	
1680.664100	3.30000000E+1	
1681.152300	3.00000000E+1	
1681.640600	2.10000000E+1	
1682.128900	3.10000000E+1	
1682.617200	2.70000000E+1	
1683.105500	3.40000000E+1	
1683.593800	3.10000000E+1	
1684.082000	2.70000000E+1	
1684.57000	3.10000000E+1	
1685.058600	2.90000000E+1	
1685.546900	4.20000000E+1	
1686.035200	3.40000000E+1	
1686.523400	2.30000000E+1	
1687.011700	4.20000000E+1	
1687.5000	3.40000000E+1	
1687.988300	3.00000000E+1	
1688.476600	3.60000000E+1	
1688.964800	1.90000000E+1	
1689.453100	4.50000000E+1	
1689.941400	2.40000000E+1	
1690.43000	2.60000000E+1	
1690.918000	3.30000000E+1	
1691.406300	3.00000000E+1	
1691.894500	2.20000000E+1	
1692.382800	3.30000000E+1	
1692.871100	2.80000000E+1	
1693.359400	2.30000000E+1	
1693.847700	2.90000000E+1	
1694.335900	3.20000000E+1	
1694.824200	3.00000000E+1	
1695.312500	3.30000000E+1	
1695.800800	2.80000000E+1	
1696.289100	3.30000000E+1	
1696.777300	3.20000000E+1	
1697.265600	3.50000000E+1	
1697.753900	2.70000000E+1	
1698.242200	3.60000000E+1	
1698.73000	3.20000000E+1	
1699.218800	2.00000000E+1	
1699.707000	3.20000000E+1	
1700.195300	3.70000000E+1	
1700.683600	2.70000000E+1	
1701.171900	2.70000000E+1	
1701.66000	3.40000000E+1	
1702.148400	2.90000000E+1	
1702.636700	3.20000000E+1	
1703.125000	2.60000000E+1	
1703.613300	2.40000000E+1	
1704.101600	3.30000000E+1	
1704.59000	3.90000000E+1	
1705.078100	3.50000000E+1	
1705.566400	3.70000000E+1	
1706.054700	3.80000000E+1	
1706.543000	4.40000000E+1	
1707.031300	2.10000000E+1	
1707.52000	3.50000000E+1	
1708.007800	3.00000000E+1	
1708.496100	3.20000000E+1	
1708.984400	2.70000000E+1	
1709.472700	2.60000000E+1	
1709.960900	1.70000000E+1	
1710.449200	3.20000000E+1	
1710.937500	3.10000000E+1	
1711.425800	3.00000000E+1	
1711.914100	2.90000000E+1	
1712.402300	3.20000000E+1	
1712.890600	3.10000000E+1	
1713.378900	3.50000000E+1	
1713.867200	3.20000000E+1	
1714.355500	3.00000000E+1	
1714.843800	2.80000000E+1	
1715.332000	3.20000000E+1	
1715.82000	3.00000000E+1	
1716.308600	3.00000000E+1	
1716.796900	3.20000000E+1	
1717.285200	3.20000000E+1	
1717.773400	2.50000000E+1	
1718.261700	4.40000000E+1	
1718.75000	3.30000000E+1	
1719.238300	3.20000000E+1	
1719.726600	2.30000000E+1	
1720.214800	3.20000000E+1	
1720.703100	3.50000000E+1	
1721.191400	4.10000000E+1	
1721.68000	4.00000000E+1	
1722.168000	2.80000000E+1	
1722.656300	2.90000000E+1	
1723.144500	2.50000000E+1	
1723.632800	3.10000000E+1	
1724.121100	3.20000000E+1	
1724.609400	3.10000000E+1	
1725.097700	3.50000000E+1	
1725.585900	2.40000000E+1	
1726.074200	3.10000000E+1	
1726.562500	4.00000000E+1	
1727.050800	3.30000000E+1	
1727.539100	3.50000000E+1	
1728.027300	3.60000000E+1	
1728.515600	2.60000000E+1	
1729.003900	4.00000000E+1	
1729.492200	2.50000000E+1	
1729.98000	2.50000000E+1	
1730.468800	3.10000000E+1	
1730.957000	2.80000000E+1	
1731.445300	2.60000000E+1	
1731.933600	1.60000000E+1	
1732.421900	3.60000000E+1	
1732.91000	2.90000000E+1	
1733.398400	4.10000000E+1	
1733.886700	2.30000000E+1	
1734.375000	3.20000000E+1	
1734.863300	3.50000000E+1	
1735.351600	3.10000000E+1	
1735.84000	3.50000000E+1	
1736.328100	2.50000000E+1	
1736.816400	2.90000000E+1	
1737.304700	3.20000000E+1	
1737.793000	3.10000000E+1	
1738.281300	3.90000000E+1	
1738.77000	3.40000000E+1	
1739.257800	2.60000000E+1	
1739.746100	2.30000000E+1	
1740.234400	3.10000000E+1	
1740.722700	3.00000000E+1	
1741.210900	3.20000000E+1	
1741.699200	3.30000000E+1	
1742.187500	2.80000000E+1	
1742.675800	2.00000000E+1	
1743.164100	2.10000000E+1	
1743.652300	3.70000000E+1	
1744.140600	2.40000000E+1	
1744.628900	3.50000000E+1	
1745.117200	2.80000000E+1	
1745.605500	2.70000000E+1	
1746.093800	3.10000000E+1	
1746.582000	3.50000000E+1	
1747.07000	3.00000000E+1	
1747.558600	3.30000000E+1	
1748.046900	2.90000000E+1	
1748.535200	2.10000000E+1	
1749.023400	4.20000000E+1	
1749.511700	3.40000000E+1	
1750.00	3.60000000E+1	
1750.488300	3.50000000E+1	
1750.976600	3.40000000E+1	
1751.464800	1.80000000E+1	
1751.953100	2.70000000E+1	
1752.441400	3.50000000E+1	
1752.93000	2.40000000E+1	
1753.418000	3.30000000E+1	
1753.906300	2.20000000E+1	
1754.394500	1.90000000E+1	
1754.882800	3.00000000E+1	
1755.371100	3.10000000E+1	
1755.859400	3.30000000E+1	
1756.347700	2.00000000E+1	
1756.835900	3.30000000E+1	
1757.324200	2.00000000E+1	
1757.812500	2.50000000E+1	
1758.300800	2.80000000E+1	
1758.789100	2.60000000E+1	
1759.277300	2.40000000E+1	
1759.765600	2.90000000E+1	
1760.253900	3.10000000E+1	
1760.742200	1.90000000E+1	
1761.23000	2.80000000E+1	
1761.718800	2.30000000E+1	
1762.207000	3.20000000E+1	
1762.695300	3.30000000E+1	
1763.183600	1.80000000E+1	
1763.671900	3.20000000E+1	
1764.16000	2.80000000E+1	
1764.648400	3.40000000E+1	
1765.136700	2.60000000E+1	
1765.625000	2.90000000E+1	
1766.113300	2.80000000E+1	
1766.601600	2.80000000E+1	
1767.09000	3.10000000E+1	
1767.578100	3.30000000E+1	
1768.066400	2.80000000E+1	
1768.554700	3.90000000E+1	
1769.043000	2.20000000E+1	
1769.531300	3.40000000E+1	
1770.02000	3.80000000E+1	
1770.507800	2.60000000E+1	
1770.996100	2.80000000E+1	
1771.484400	3.10000000E+1	
1771.972700	2.90000000E+1	
1772.460900	3.40000000E+1	
1772.949200	2.60000000E+1	
1773.437500	2.70000000E+1	
1773.925800	3.70000000E+1	
1774.414100	2.30000000E+1	
1774.902300	3.30000000E+1	
1775.390600	3.60000000E+1	
1775.878900	3.20000000E+1	
1776.367200	3.00000000E+1	
1776.855500	2.30000000E+1	
1777.343800	2.60000000E+1	
1777.832000	2.80000000E+1	
1778.32000	3.30000000E+1	
1778.808600	3.70000000E+1	
1779.296900	2.30000000E+1	
1779.785200	3.70000000E+1	
1780.273400	2.70000000E+1	
1780.761700	2.70000000E+1	
1781.25000	2.30000000E+1	
1781.738300	2.50000000E+1	
1782.226600	3.90000000E+1	
1782.714800	3.50000000E+1	
1783.203100	2.70000000E+1	
1783.691400	2.30000000E+1	
1784.18000	2.30000000E+1	
1784.668000	2.80000000E+1	
1785.156300	3.70000000E+1	
1785.644500	2.60000000E+1	
1786.132800	2.90000000E+1	
1786.621100	2.50000000E+1	
1787.109400	3.20000000E+1	
1787.597700	3.50000000E+1	
1788.085900	2.70000000E+1	
1788.574200	2.80000000E+1	
1789.062500	3.60000000E+1	
1789.550800	3.40000000E+1	
1790.039100	3.20000000E+1	
1790.527300	2.10000000E+1	
1791.015600	2.00000000E+1	
1791.503900	3.40000000E+1	
1791.992200	2.70000000E+1	
1792.48000	2.60000000E+1	
1792.968800	2.30000000E+1	
1793.457000	1.80000000E+1	
1793.945300	2.40000000E+1	
1794.433600	2.60000000E+1	
1794.921900	2.50000000E+1	
1795.41000	2.50000000E+1	
1795.898400	2.00000000E+1	
1796.386700	3.10000000E+1	
1796.875000	2.30000000E+1	
1797.363300	3.10000000E+1	
1797.851600	3.10000000E+1	
1798.34000	3.10000000E+1	
1798.828100	2.80000000E+1	
1799.316400	2.40000000E+1	
1799.804700	2.80000000E+1	
1800.293000	3.10000000E+1	
1800.781300	3.30000000E+1	
1801.27000	3.00000000E+1	
1801.757800	2.90000000E+1	
1802.246100	3.80000000E+1	
1802.734400	2.70000000E+1	
1803.222700	3.40000000E+1	
1803.710900	2.50000000E+1	
1804.199200	1.30000000E+1	
1804.687500	2.30000000E+1	
1805.175800	4.00000000E+1	
1805.664100	3.50000000E+1	
1806.152300	3.20000000E+1	
1806.640600	2.80000000E+1	
1807.128900	3.00000000E+1	
1807.617200	2.70000000E+1	
1808.105500	3.10000000E+1	
1808.593800	4.20000000E+1	
1809.082000	3.30000000E+1	
1809.57000	3.40000000E+1	
1810.058600	2.80000000E+1	
1810.546900	3.10000000E+1	
1811.035200	3.00000000E+1	
1811.523400	1.80000000E+1	
1812.011700	3.80000000E+1	
1812.5000	2.50000000E+1	
1812.988300	3.70000000E+1	
1813.476600	2.50000000E+1	
1813.964800	2.40000000E+1	
1814.453100	2.50000000E+1	
1814.941400	2.70000000E+1	
1815.43000	2.40000000E+1	
1815.918000	2.90000000E+1	
1816.406300	2.80000000E+1	
1816.894500	2.00000000E+1	
1817.382800	2.40000000E+1	
1817.871100	2.50000000E+1	
1818.359400	3.40000000E+1	
1818.847700	3.30000000E+1	
1819.335900	3.10000000E+1	
1819.824200	2.80000000E+1	
1820.312500	3.00000000E+1	
1820.800800	2.50000000E+1	
1821.289100	2.60000000E+1	
1821.777300	3.00000000E+1	
1822.265600	2.50000000E+1	
1822.753900	3.30000000E+1	
1823.242200	3.20000000E+1	
1823.73000	2.60000000E+1	
1824.218800	2.70000000E+1	
1824.707000	2.40000000E+1	
1825.195300	2.60000000E+1	
1825.683600	1.50000000E+1	
1826.171900	2.90000000E+1	
1826.66000	3.20000000E+1	
1827.148400	2.30000000E+1	
1827.636700	2.80000000E+1	
1828.125000	2.30000000E+1	
1828.613300	2.60000000E+1	
1829.101600	2.20000000E+1	
1829.59000	2.10000000E+1	
1830.078100	2.30000000E+1	
1830.566400	3.50000000E+1	
1831.054700	3.50000000E+1	
1831.543000	3.10000000E+1	
1832.031300	2.10000000E+1	
1832.52000	2.20000000E+1	
1833.007800	2.30000000E+1	
1833.496100	2.90000000E+1	
1833.984400	3.10000000E+1	
1834.472700	2.20000000E+1	
1834.960900	2.30000000E+1	
1835.449200	3.00000000E+1	
1835.937500	3.20000000E+1	
1836.425800	3.30000000E+1	
1836.914100	2.70000000E+1	
1837.402300	2.10000000E+1	
1837.890600	2.10000000E+1	
1838.378900	2.20000000E+1	
1838.867200	1.70000000E+1	
1839.355500	2.30000000E+1	
1839.843800	3.00000000E+1	
1840.332000	3.00000000E+1	
1840.82000	3.50000000E+1	
1841.308600	2.30000000E+1	
1841.796900	2.20000000E+1	
1842.285200	2.00000000E+1	
1842.773400	2.80000000E+1	
1843.261700	3.20000000E+1	
1843.75000	2.70000000E+1	
1844.238300	2.00000000E+1	
1844.726600	2.50000000E+1	
1845.214800	2.20000000E+1	
1845.703100	1.70000000E+1	
1846.191400	2.80000000E+1	
1846.68000	2.90000000E+1	
1847.168000	2.70000000E+1	
1847.656300	4.30000000E+1	
1848.144500	1.90000000E+1	
1848.632800	3.20000000E+1	
1849.121100	3.60000000E+1	
1849.609400	2.30000000E+1	
1850.097700	2.00000000E+1	
1850.585900	2.50000000E+1	
1851.074200	1.80000000E+1	
1851.562500	2.80000000E+1	
1852.050800	1.50000000E+1	
1852.539100	3.30000000E+1	
1853.027300	2.50000000E+1	
1853.515600	2.90000000E+1	
1854.003900	2.40000000E+1	
1854.492200	3.70000000E+1	
1854.98000	3.00000000E+1	
1855.468800	2.60000000E+1	
1855.957000	2.30000000E+1	
1856.445300	2.70000000E+1	
1856.933600	3.40000000E+1	
1857.421900	3.70000000E+1	
1857.91000	2.70000000E+1	
1858.398400	3.30000000E+1	
1858.886700	3.50000000E+1	
1859.375000	2.40000000E+1	
1859.863300	2.40000000E+1	
1860.351600	3.10000000E+1	
1860.84000	2.70000000E+1	
1861.328100	2.50000000E+1	
1861.816400	3.20000000E+1	
1862.304700	2.00000000E+1	
1862.793000	3.30000000E+1	
1863.281300	2.00000000E+1	
1863.77000	2.50000000E+1	
1864.257800	2.00000000E+1	
1864.746100	2.70000000E+1	
1865.234400	2.50000000E+1	
1865.722700	2.50000000E+1	
1866.210900	2.70000000E+1	
1866.699200	2.30000000E+1	
1867.187500	2.40000000E+1	
1867.675800	2.20000000E+1	
1868.164100	2.50000000E+1	
1868.652300	2.80000000E+1	
1869.140600	2.80000000E+1	
1869.628900	2.10000000E+1	
1870.117200	2.10000000E+1	
1870.605500	2.40000000E+1	
1871.093800	2.20000000E+1	
1871.582000	2.70000000E+1	
1872.07000	2.20000000E+1	
1872.558600	3.30000000E+1	
1873.046900	2.40000000E+1	
1873.535200	2.50000000E+1	
1874.023400	2.00000000E+1	
1874.511700	2.70000000E+1	
1875.000	2.50000000E+1	
1875.488300	2.60000000E+1	
1875.976600	2.10000000E+1	
1876.464800	2.70000000E+1	
1876.953100	3.50000000E+1	
1877.441400	2.50000000E+1	
1877.93000	3.00000000E+1	
1878.418000	2.40000000E+1	
1878.906300	2.30000000E+1	
1879.394500	3.70000000E+1	
1879.882800	2.20000000E+1	
1880.371100	2.50000000E+1	
1880.859400	1.80000000E+1	
1881.347700	1.50000000E+1	
1881.835900	2.20000000E+1	
1882.324200	1.90000000E+1	
1882.812500	2.90000000E+1	
1883.300800	2.70000000E+1	
1883.789100	2.60000000E+1	
1884.277300	2.80000000E+1	
1884.765600	2.90000000E+1	
1885.253900	2.50000000E+1	
1885.742200	2.60000000E+1	
1886.23000	2.10000000E+1	
1886.718800	4.30000000E+1	
1887.207000	2.30000000E+1	
1887.695300	3.30000000E+1	
1888.183600	2.80000000E+1	
1888.671900	2.00000000E+1	
1889.16000	2.90000000E+1	
1889.648400	2.20000000E+1	
1890.136700	3.20000000E+1	
1890.625000	3.00000000E+1	
1891.113300	2.40000000E+1	
1891.601600	2.70000000E+1	
1892.09000	2.50000000E+1	
1892.578100	3.60000000E+1	
1893.066400	3.40000000E+1	
1893.554700	2.10000000E+1	
1894.043000	2.90000000E+1	
1894.531300	3.90000000E+1	
1895.02000	2.90000000E+1	
1895.507800	2.10000000E+1	
1895.996100	2.80000000E+1	
1896.484400	2.30000000E+1	
1896.972700	2.90000000E+1	
1897.460900	2.50000000E+1	
1897.949200	2.30000000E+1	
1898.437500	2.10000000E+1	
1898.925800	2.50000000E+1	
1899.414100	2.90000000E+1	
1899.902300	2.70000000E+1	
1900.390600	2.80000000E+1	
1900.878900	2.90000000E+1	
1901.367200	3.10000000E+1	
1901.855500	2.70000000E+1	
1902.343800	2.60000000E+1	
1902.832000	2.10000000E+1	
1903.32000	2.50000000E+1	
1903.808600	2.90000000E+1	
1904.296900	3.90000000E+1	
1904.785200	2.50000000E+1	
1905.273400	2.90000000E+1	
1905.761700	3.40000000E+1	
1906.25000	3.30000000E+1	
1906.738300	3.10000000E+1	
1907.226600	2.50000000E+1	
1907.714800	1.70000000E+1	
1908.203100	3.10000000E+1	
1908.691400	3.00000000E+1	
1909.18000	3.00000000E+1	
1909.668000	3.10000000E+1	
1910.156300	3.20000000E+1	
1910.644500	2.90000000E+1	
1911.132800	2.30000000E+1	
1911.621100	2.10000000E+1	
1912.109400	2.20000000E+1	
1912.597700	2.10000000E+1	
1913.085900	2.60000000E+1	
1913.574200	2.90000000E+1	
1914.062500	3.00000000E+1	
1914.550800	2.40000000E+1	
1915.039100	2.60000000E+1	
1915.527300	3.10000000E+1	
1916.015600	3.40000000E+1	
1916.503900	1.70000000E+1	
1916.992200	4.30000000E+1	
1917.48000	2.40000000E+1	
1917.968800	1.80000000E+1	
1918.457000	4.10000000E+1	
1918.945300	1.50000000E+1	
1919.433600	2.70000000E+1	
1919.921900	1.90000000E+1	
1920.41000	3.00000000E+1	
1920.898400	2.60000000E+1	
1921.386700	3.30000000E+1	
1921.875000	3.40000000E+1	
1922.363300	1.90000000E+1	
1922.851600	2.90000000E+1	
1923.34000	2.40000000E+1	
1923.828100	2.90000000E+1	
1924.316400	2.80000000E+1	
1924.804700	3.00000000E+1	
1925.293000	3.20000000E+1	
1925.781300	2.50000000E+1	
1926.27000	2.20000000E+1	
1926.757800	1.70000000E+1	
1927.246100	2.90000000E+1	
1927.734400	2.90000000E+1	
1928.222700	2.50000000E+1	
1928.710900	2.30000000E+1	
1929.199200	2.60000000E+1	
1929.687500	3.70000000E+1	
1930.175800	2.60000000E+1	
1930.664100	2.20000000E+1	
1931.152300	1.90000000E+1	
1931.640600	3.20000000E+1	
1932.128900	2.60000000E+1	
1932.617200	3.00000000E+1	
1933.105500	2.10000000E+1	
1933.593800	3.40000000E+1	
1934.082000	3.20000000E+1	
1934.57000	2.50000000E+1	
1935.058600	2.90000000E+1	
1935.546900	3.10000000E+1	
1936.035200	1.20000000E+1	
1936.523400	2.80000000E+1	
1937.011700	2.60000000E+1	
1937.5000	2.90000000E+1	
1937.988300	2.50000000E+1	
1938.476600	2.10000000E+1	
1938.964800	2.20000000E+1	
1939.453100	1.80000000E+1	
1939.941400	2.40000000E+1	
1940.43000	1.90000000E+1	
1940.918000	3.50000000E+1	
1941.406300	2.00000000E+1	
1941.894500	3.00000000E+1	
1942.382800	2.80000000E+1	
1942.871100	2.90000000E+1	
1943.359400	2.20000000E+1	
1943.847700	2.70000000E+1	
1944.335900	3.20000000E+1	
1944.824200	2.10000000E+1	
1945.312500	2.10000000E+1	
1945.800800	1.50000000E+1	
1946.289100	3.10000000E+1	
1946.777300	2.70000000E+1	
1947.265600	3.40000000E+1	
1947.753900	2.80000000E+1	
1948.242200	3.10000000E+1	
1948.73000	2.40000000E+1	
1949.218800	2.60000000E+1	
1949.707000	2.10000000E+1	
1950.195300	2.80000000E+1	
1950.683600	2.00000000E+1	
1951.171900	3.10000000E+1	
1951.66000	3.00000000E+1	
1952.148400	2.70000000E+1	
1952.636700	1.60000000E+1	
1953.125000	3.40000000E+1	
1953.613300	3.10000000E+1	
1954.101600	2.60000000E+1	
1954.59000	3.00000000E+1	
1955.078100	2.60000000E+1	
1955.566400	3.60000000E+1	
1956.054700	2.40000000E+1	
1956.543000	2.90000000E+1	
1957.031300	3.10000000E+1	
1957.52000	2.30000000E+1	
1958.007800	2.30000000E+1	
1958.496100	2.00000000E+1	
1958.984400	3.20000000E+1	
1959.472700	2.80000000E+1	
1959.960900	2.10000000E+1	
1960.449200	2.80000000E+1	
1960.937500	2.10000000E+1	
1961.425800	2.10000000E+1	
1961.914100	2.40000000E+1	
1962.402300	1.90000000E+1	
1962.890600	3.10000000E+1	
1963.378900	3.10000000E+1	
1963.867200	2.80000000E+1	
1964.355500	3.20000000E+1	
1964.843800	2.50000000E+1	
1965.332000	2.90000000E+1	
1965.82000	2.40000000E+1	
1966.308600	2.40000000E+1	
1966.796900	3.20000000E+1	
1967.285200	1.90000000E+1	
1967.773400	2.30000000E+1	
1968.261700	2.90000000E+1	
1968.75000	3.40000000E+1	
1969.238300	2.60000000E+1	
1969.726600	3.40000000E+1	
1970.214800	2.30000000E+1	
1970.703100	2.60000000E+1	
1971.191400	2.90000000E+1	
1971.68000	3.20000000E+1	
1972.168000	2.40000000E+1	
1972.656300	2.50000000E+1	
1973.144500	2.60000000E+1	
1973.632800	2.80000000E+1	
1974.121100	1.90000000E+1	
1974.609400	2.10000000E+1	
1975.097700	1.80000000E+1	
1975.585900	2.40000000E+1	
1976.074200	2.20000000E+1	
1976.562500	3.10000000E+1	
1977.050800	2.00000000E+1	
1977.539100	2.10000000E+1	
1978.027300	2.80000000E+1	
1978.515600	2.30000000E+1	
1979.003900	2.70000000E+1	
1979.492200	2.40000000E+1	
1979.98000	2.60000000E+1	
1980.468800	2.60000000E+1	
1980.957000	2.90000000E+1	
1981.445300	3.00000000E+1	
1981.933600	1.90000000E+1	
1982.421900	1.90000000E+1	
1982.91000	2.60000000E+1	
1983.398400	2.70000000E+1	
1983.886700	2.50000000E+1	
1984.375000	3.40000000E+1	
1984.863300	3.00000000E+1	
1985.351600	1.90000000E+1	
1985.84000	3.40000000E+1	
1986.328100	2.50000000E+1	
1986.816400	2.50000000E+1	
1987.304700	2.70000000E+1	
1987.793000	2.90000000E+1	
1988.281300	2.50000000E+1	
1988.77000	2.60000000E+1	
1989.257800	2.50000000E+1	
1989.746100	2.60000000E+1	
1990.234400	2.00000000E+1	
1990.722700	2.00000000E+1	
1991.210900	2.40000000E+1	
1991.699200	2.10000000E+1	
1992.187500	2.40000000E+1	
1992.675800	2.80000000E+1	
1993.164100	2.80000000E+1	
1993.652300	2.10000000E+1	
1994.140600	3.90000000E+1	
1994.628900	2.90000000E+1	
1995.117200	2.80000000E+1	
1995.605500	1.90000000E+1	
1996.093800	2.70000000E+1	
1996.582000	2.10000000E+1	
1997.07000	3.00000000E+1	
1997.558600	2.60000000E+1	
1998.046900	2.60000000E+1	
1998.535200	2.30000000E+1	
1999.023400	2.40000000E+1	
1999.511700	1.60000000E+1	
