Labels	APTMethylS_Br15_1M_1MHz_0	
Type	Time Scan	
Comment		
Start	0.00	
Stop	999.511720	
Step	0.48828125	
Fixed/Offset	 	
XAxis	Time(ns)	
YAxis	Counts	

0.00	0.00000000E+0	
0.48828125	0.00000000E+0	
0.97656250	0.00000000E+0	
1.4648438	0.00000000E+0	
1.9531250	0.00000000E+0	
2.4414063	0.00000000E+0	
2.9296875	0.00000000E+0	
3.4179688	0.00000000E+0	
3.906250	0.00000000E+0	
4.3945313	0.00000000E+0	
4.8828125	0.00000000E+0	
5.3710938	0.00000000E+0	
5.8593750	0.00000000E+0	
6.3476563	0.00000000E+0	
6.8359375	0.00000000E+0	
7.3242188	0.00000000E+0	
7.81250	0.00000000E+0	
8.3007813	0.00000000E+0	
8.7890625	0.00000000E+0	
9.2773438	0.00000000E+0	
9.7656250	0.00000000E+0	
10.253906	0.00000000E+0	
10.742188	0.00000000E+0	
11.230469	0.00000000E+0	
11.718750	0.00000000E+0	
12.207031	0.00000000E+0	
12.695313	0.00000000E+0	
13.183594	0.00000000E+0	
13.671875	0.00000000E+0	
14.160156	0.00000000E+0	
14.648438	0.00000000E+0	
15.136719	0.00000000E+0	
15.6250	0.00000000E+0	
16.113281	0.00000000E+0	
16.601563	0.00000000E+0	
17.089844	0.00000000E+0	
17.578125	0.00000000E+0	
18.066406	0.00000000E+0	
18.554688	0.00000000E+0	
19.042969	0.00000000E+0	
19.531250	0.00000000E+0	
20.019531	0.00000000E+0	
20.507813	0.00000000E+0	
20.996094	0.00000000E+0	
21.484375	0.00000000E+0	
21.972656	0.00000000E+0	
22.460938	0.00000000E+0	
22.949219	0.00000000E+0	
23.43750	0.00000000E+0	
23.925781	0.00000000E+0	
24.414063	0.00000000E+0	
24.902344	0.00000000E+0	
25.390625	0.00000000E+0	
25.878906	0.00000000E+0	
26.367188	0.00000000E+0	
26.855469	0.00000000E+0	
27.343750	0.00000000E+0	
27.832031	0.00000000E+0	
28.320313	0.00000000E+0	
28.808594	0.00000000E+0	
29.296875	0.00000000E+0	
29.785156	6.00000000E+0	
30.273438	1.20000000E+1	
30.761719	1.30000000E+1	
31.250	1.50000000E+1	
31.738281	1.50000000E+1	
32.226563	1.30000000E+1	
32.714844	1.40000000E+1	
33.203125	1.00000000E+1	
33.691406	1.40000000E+1	
34.179688	1.00000000E+1	
34.667969	1.10000000E+1	
35.156250	6.00000000E+0	
35.644531	1.50000000E+1	
36.132813	1.20000000E+1	
36.621094	1.10000000E+1	
37.109375	7.00000000E+0	
37.597656	5.00000000E+0	
38.085938	1.20000000E+1	
38.574219	1.20000000E+1	
39.06250	1.20000000E+1	
39.550781	3.00000000E+0	
40.039063	7.00000000E+0	
40.527344	6.00000000E+0	
41.015625	1.00000000E+1	
41.503906	8.00000000E+0	
41.992188	1.00000000E+1	
42.480469	1.50000000E+1	
42.968750	9.00000000E+0	
43.457031	4.00000000E+0	
43.945313	1.30000000E+1	
44.433594	1.10000000E+1	
44.921875	1.10000000E+1	
45.410156	1.10000000E+1	
45.898438	9.00000000E+0	
46.386719	3.00000000E+0	
46.8750	1.70000000E+1	
47.363281	1.40000000E+1	
47.851563	1.20000000E+1	
48.339844	9.00000000E+0	
48.828125	3.00000000E+1	
49.316406	8.10000000E+1	
49.804688	1.54000000E+2	
50.292969	1.49000000E+2	
50.781250	1.36000000E+2	
51.269531	7.20000000E+1	
51.757813	5.00000000E+1	
52.246094	3.70000000E+1	
52.734375	3.80000000E+1	
53.222656	4.40000000E+1	
53.710938	4.20000000E+1	
54.199219	4.50000000E+1	
54.68750	4.40000000E+1	
55.175781	3.10000000E+1	
55.664063	4.30000000E+1	
56.152344	5.00000000E+1	
56.640625	2.80000000E+1	
57.128906	3.60000000E+1	
57.617188	2.90000000E+1	
58.105469	3.30000000E+1	
58.593750	3.40000000E+1	
59.082031	4.00000000E+1	
59.570313	4.10000000E+1	
60.058594	3.30000000E+1	
60.546875	3.40000000E+1	
61.035156	4.80000000E+1	
61.523438	4.20000000E+1	
62.011719	3.60000000E+1	
62.50	3.30000000E+1	
62.988281	3.90000000E+1	
63.476563	2.10000000E+1	
63.964844	2.80000000E+1	
64.453125	2.30000000E+1	
64.941406	2.50000000E+1	
65.429688	2.70000000E+1	
65.917969	3.70000000E+1	
66.406250	3.80000000E+1	
66.894531	3.40000000E+1	
67.382813	3.00000000E+1	
67.871094	2.90000000E+1	
68.359375	3.80000000E+1	
68.847656	3.60000000E+1	
69.335938	3.10000000E+1	
69.824219	2.70000000E+1	
70.31250	3.00000000E+1	
70.800781	2.80000000E+1	
71.289063	3.80000000E+1	
71.777344	4.00000000E+1	
72.265625	3.20000000E+1	
72.753906	2.50000000E+1	
73.242188	3.50000000E+1	
73.730469	3.00000000E+1	
74.218750	2.60000000E+1	
74.707031	2.90000000E+1	
75.195313	2.50000000E+1	
75.683594	3.10000000E+1	
76.171875	3.80000000E+1	
76.660156	3.20000000E+1	
77.148438	3.20000000E+1	
77.636719	3.80000000E+1	
78.1250	3.90000000E+1	
78.613281	2.30000000E+1	
79.101563	2.90000000E+1	
79.589844	3.10000000E+1	
80.078125	3.60000000E+1	
80.566406	2.90000000E+1	
81.054688	3.20000000E+1	
81.542969	3.00000000E+1	
82.031250	2.10000000E+1	
82.519531	4.00000000E+1	
83.007813	3.40000000E+1	
83.496094	3.20000000E+1	
83.984375	3.00000000E+1	
84.472656	2.90000000E+1	
84.960938	3.00000000E+1	
85.449219	3.40000000E+1	
85.93750	3.20000000E+1	
86.425781	2.80000000E+1	
86.914063	2.70000000E+1	
87.402344	3.20000000E+1	
87.890625	2.90000000E+1	
88.378906	3.80000000E+1	
88.867188	3.50000000E+1	
89.355469	3.80000000E+1	
89.843750	3.00000000E+1	
90.332031	3.50000000E+1	
90.820313	2.60000000E+1	
91.308594	2.50000000E+1	
91.796875	3.20000000E+1	
92.285156	2.60000000E+1	
92.773438	2.40000000E+1	
93.261719	3.70000000E+1	
93.750	2.60000000E+1	
94.238281	2.10000000E+1	
94.726563	3.70000000E+1	
95.214844	2.70000000E+1	
95.703125	3.40000000E+1	
96.191406	3.30000000E+1	
96.679688	2.70000000E+1	
97.167969	3.20000000E+1	
97.656250	3.60000000E+1	
98.144531	2.90000000E+1	
98.632813	2.30000000E+1	
99.121094	2.40000000E+1	
99.609375	3.20000000E+1	
100.097660	2.60000000E+1	
100.585940	2.60000000E+1	
101.074220	2.50000000E+1	
101.562500	2.30000000E+1	
102.050780	2.70000000E+1	
102.539060	3.60000000E+1	
103.027340	2.40000000E+1	
103.515630	2.30000000E+1	
104.003910	3.20000000E+1	
104.492190	2.80000000E+1	
104.980470	3.20000000E+1	
105.468750	4.50000000E+1	
105.95700	3.40000000E+1	
106.445310	2.60000000E+1	
106.933590	3.30000000E+1	
107.421880	3.40000000E+1	
107.910160	2.40000000E+1	
108.398440	3.30000000E+1	
108.886720	2.20000000E+1	
109.37500	2.80000000E+1	
109.863280	2.70000000E+1	
110.351560	2.90000000E+1	
110.839840	3.10000000E+1	
111.328130	2.30000000E+1	
111.816410	2.90000000E+1	
112.304690	2.20000000E+1	
112.79300	2.30000000E+1	
113.281250	3.00000000E+1	
113.769530	2.90000000E+1	
114.257810	2.60000000E+1	
114.746090	1.90000000E+1	
115.234380	3.10000000E+1	
115.722660	3.20000000E+1	
116.210940	3.20000000E+1	
116.699220	3.20000000E+1	
117.187500	2.20000000E+1	
117.675780	2.20000000E+1	
118.164060	2.00000000E+1	
118.652340	2.50000000E+1	
119.140630	2.10000000E+1	
119.628910	2.50000000E+1	
120.117190	2.40000000E+1	
120.605470	4.70000000E+1	
121.093750	2.50000000E+1	
121.58200	3.80000000E+1	
122.070310	3.30000000E+1	
122.558590	3.00000000E+1	
123.046880	2.90000000E+1	
123.535160	2.20000000E+1	
124.023440	2.50000000E+1	
124.511720	3.60000000E+1	
125.00	2.40000000E+1	
125.488280	2.20000000E+1	
125.976560	2.30000000E+1	
126.464840	2.40000000E+1	
126.953130	2.50000000E+1	
127.441410	2.70000000E+1	
127.929690	2.50000000E+1	
128.41800	2.70000000E+1	
128.906250	3.00000000E+1	
129.394530	2.90000000E+1	
129.882810	2.80000000E+1	
130.371090	3.00000000E+1	
130.859380	2.90000000E+1	
131.347660	3.50000000E+1	
131.835940	2.90000000E+1	
132.324220	2.50000000E+1	
132.812500	3.00000000E+1	
133.300780	2.00000000E+1	
133.789060	3.10000000E+1	
134.277340	2.60000000E+1	
134.765630	2.40000000E+1	
135.253910	2.20000000E+1	
135.742190	2.30000000E+1	
136.230470	2.60000000E+1	
136.718750	2.30000000E+1	
137.20700	2.90000000E+1	
137.695310	2.20000000E+1	
138.183590	3.20000000E+1	
138.671880	3.20000000E+1	
139.160160	3.10000000E+1	
139.648440	2.90000000E+1	
140.136720	2.70000000E+1	
140.62500	2.40000000E+1	
141.113280	2.80000000E+1	
141.601560	1.50000000E+1	
142.089840	2.70000000E+1	
142.578130	2.40000000E+1	
143.066410	3.10000000E+1	
143.554690	2.70000000E+1	
144.04300	3.60000000E+1	
144.531250	3.50000000E+1	
145.019530	2.10000000E+1	
145.507810	2.00000000E+1	
145.996090	2.80000000E+1	
146.484380	2.50000000E+1	
146.972660	2.60000000E+1	
147.460940	2.80000000E+1	
147.949220	2.00000000E+1	
148.437500	2.80000000E+1	
148.925780	3.10000000E+1	
149.414060	2.50000000E+1	
149.902340	3.50000000E+1	
150.390630	2.40000000E+1	
150.878910	3.20000000E+1	
151.367190	3.50000000E+1	
151.855470	1.70000000E+1	
152.343750	3.30000000E+1	
152.83200	2.10000000E+1	
153.320310	1.70000000E+1	
153.808590	2.60000000E+1	
154.296880	2.40000000E+1	
154.785160	2.60000000E+1	
155.273440	2.20000000E+1	
155.761720	2.80000000E+1	
156.2500	2.40000000E+1	
156.738280	2.50000000E+1	
157.226560	2.10000000E+1	
157.714840	2.30000000E+1	
158.203130	2.40000000E+1	
158.691410	2.80000000E+1	
159.179690	3.40000000E+1	
159.66800	3.40000000E+1	
160.156250	2.40000000E+1	
160.644530	2.40000000E+1	
161.132810	2.30000000E+1	
161.621090	2.70000000E+1	
162.109380	3.00000000E+1	
162.597660	2.20000000E+1	
163.085940	2.00000000E+1	
163.574220	2.80000000E+1	
164.062500	2.60000000E+1	
164.550780	1.80000000E+1	
165.039060	2.20000000E+1	
165.527340	2.30000000E+1	
166.015630	2.90000000E+1	
166.503910	3.10000000E+1	
166.992190	2.60000000E+1	
167.480470	2.60000000E+1	
167.968750	2.50000000E+1	
168.45700	1.70000000E+1	
168.945310	1.60000000E+1	
169.433590	2.10000000E+1	
169.921880	3.30000000E+1	
170.410160	2.70000000E+1	
170.898440	3.30000000E+1	
171.386720	1.80000000E+1	
171.87500	1.90000000E+1	
172.363280	2.00000000E+1	
172.851560	2.40000000E+1	
173.339840	2.00000000E+1	
173.828130	2.70000000E+1	
174.316410	2.00000000E+1	
174.804690	3.20000000E+1	
175.29300	2.50000000E+1	
175.781250	1.70000000E+1	
176.269530	1.80000000E+1	
176.757810	1.90000000E+1	
177.246090	1.70000000E+1	
177.734380	2.30000000E+1	
178.222660	2.10000000E+1	
178.710940	2.90000000E+1	
179.199220	2.70000000E+1	
179.687500	2.40000000E+1	
180.175780	3.10000000E+1	
180.664060	1.90000000E+1	
181.152340	2.00000000E+1	
181.640630	2.60000000E+1	
182.128910	2.90000000E+1	
182.617190	3.00000000E+1	
183.105470	1.40000000E+1	
183.593750	2.40000000E+1	
184.08200	2.90000000E+1	
184.570310	2.30000000E+1	
185.058590	2.90000000E+1	
185.546880	2.70000000E+1	
186.035160	2.40000000E+1	
186.523440	2.20000000E+1	
187.011720	2.70000000E+1	
187.500	2.20000000E+1	
187.988280	2.60000000E+1	
188.476560	2.60000000E+1	
188.964840	1.90000000E+1	
189.453130	3.10000000E+1	
189.941410	2.70000000E+1	
190.429690	3.20000000E+1	
190.91800	2.80000000E+1	
191.406250	1.80000000E+1	
191.894530	2.50000000E+1	
192.382810	1.40000000E+1	
192.871090	2.00000000E+1	
193.359380	2.10000000E+1	
193.847660	2.60000000E+1	
194.335940	2.20000000E+1	
194.824220	2.30000000E+1	
195.312500	2.40000000E+1	
195.800780	2.20000000E+1	
196.289060	2.20000000E+1	
196.777340	2.10000000E+1	
197.265630	2.00000000E+1	
197.753910	2.30000000E+1	
198.242190	2.50000000E+1	
198.730470	2.20000000E+1	
199.218750	2.10000000E+1	
199.70700	2.00000000E+1	
200.195310	2.30000000E+1	
200.683590	2.40000000E+1	
201.171880	1.90000000E+1	
201.660160	2.60000000E+1	
202.148440	1.90000000E+1	
202.636720	1.70000000E+1	
203.12500	1.60000000E+1	
203.613280	2.00000000E+1	
204.101560	2.90000000E+1	
204.589840	3.20000000E+1	
205.078130	2.40000000E+1	
205.566410	1.70000000E+1	
206.054690	2.60000000E+1	
206.54300	2.40000000E+1	
207.031250	2.40000000E+1	
207.519530	1.80000000E+1	
208.007810	1.90000000E+1	
208.496090	2.70000000E+1	
208.984380	1.80000000E+1	
209.472660	2.10000000E+1	
209.960940	2.00000000E+1	
210.449220	2.10000000E+1	
210.937500	2.60000000E+1	
211.425780	2.80000000E+1	
211.914060	2.50000000E+1	
212.402340	1.80000000E+1	
212.890630	1.50000000E+1	
213.378910	3.30000000E+1	
213.867190	2.00000000E+1	
214.355470	2.10000000E+1	
214.843750	1.80000000E+1	
215.33200	3.20000000E+1	
215.820310	2.00000000E+1	
216.308590	3.10000000E+1	
216.796880	1.80000000E+1	
217.285160	2.20000000E+1	
217.773440	2.30000000E+1	
218.261720	2.00000000E+1	
218.7500	2.10000000E+1	
219.238280	2.80000000E+1	
219.726560	1.70000000E+1	
220.214840	1.80000000E+1	
220.703130	2.70000000E+1	
221.191410	2.60000000E+1	
221.679690	2.60000000E+1	
222.16800	2.00000000E+1	
222.656250	2.80000000E+1	
223.144530	2.90000000E+1	
223.632810	1.40000000E+1	
224.121090	2.40000000E+1	
224.609380	1.70000000E+1	
225.097660	2.70000000E+1	
225.585940	3.40000000E+1	
226.074220	2.10000000E+1	
226.562500	2.80000000E+1	
227.050780	2.50000000E+1	
227.539060	2.30000000E+1	
228.027340	1.50000000E+1	
228.515630	2.50000000E+1	
229.003910	2.70000000E+1	
229.492190	2.60000000E+1	
229.980470	1.40000000E+1	
230.468750	2.30000000E+1	
230.95700	1.90000000E+1	
231.445310	2.80000000E+1	
231.933590	2.00000000E+1	
232.421880	3.10000000E+1	
232.910160	2.60000000E+1	
233.398440	1.90000000E+1	
233.886720	2.00000000E+1	
234.37500	2.20000000E+1	
234.863280	2.00000000E+1	
235.351560	3.20000000E+1	
235.839840	2.00000000E+1	
236.328130	2.30000000E+1	
236.816410	2.30000000E+1	
237.304690	2.00000000E+1	
237.79300	2.80000000E+1	
238.281250	2.20000000E+1	
238.769530	2.30000000E+1	
239.257810	2.00000000E+1	
239.746090	2.70000000E+1	
240.234380	1.80000000E+1	
240.722660	2.30000000E+1	
241.210940	2.10000000E+1	
241.699220	2.80000000E+1	
242.187500	1.90000000E+1	
242.675780	2.20000000E+1	
243.164060	2.30000000E+1	
243.652340	2.10000000E+1	
244.140630	2.30000000E+1	
244.628910	2.50000000E+1	
245.117190	2.60000000E+1	
245.605470	1.70000000E+1	
246.093750	1.50000000E+1	
246.58200	1.60000000E+1	
247.070310	1.80000000E+1	
247.558590	2.40000000E+1	
248.046880	2.90000000E+1	
248.535160	1.80000000E+1	
249.023440	3.00000000E+1	
249.511720	2.30000000E+1	
250.00	3.10000000E+1	
250.488280	2.30000000E+1	
250.976560	1.50000000E+1	
251.464840	2.40000000E+1	
251.953130	2.40000000E+1	
252.441410	2.50000000E+1	
252.929690	2.30000000E+1	
253.41800	2.00000000E+1	
253.906250	2.70000000E+1	
254.394530	1.80000000E+1	
254.882810	2.00000000E+1	
255.371090	2.20000000E+1	
255.859380	2.20000000E+1	
256.347660	2.50000000E+1	
256.835940	2.80000000E+1	
257.324220	2.90000000E+1	
257.812500	2.00000000E+1	
258.300780	1.50000000E+1	
258.789060	2.70000000E+1	
259.277340	2.40000000E+1	
259.765630	2.50000000E+1	
260.253910	3.30000000E+1	
260.742190	1.40000000E+1	
261.230470	2.20000000E+1	
261.718750	2.60000000E+1	
262.20700	2.30000000E+1	
262.695310	2.10000000E+1	
263.183590	3.10000000E+1	
263.671880	2.40000000E+1	
264.160160	2.90000000E+1	
264.648440	2.00000000E+1	
265.136720	2.20000000E+1	
265.62500	2.60000000E+1	
266.113280	2.60000000E+1	
266.601560	2.30000000E+1	
267.089840	2.10000000E+1	
267.578130	2.10000000E+1	
268.066410	1.90000000E+1	
268.554690	1.80000000E+1	
269.04300	1.90000000E+1	
269.531250	1.80000000E+1	
270.019530	3.70000000E+1	
270.507810	2.10000000E+1	
270.996090	2.80000000E+1	
271.484380	2.00000000E+1	
271.972660	1.90000000E+1	
272.460940	2.20000000E+1	
272.949220	1.60000000E+1	
273.437500	2.20000000E+1	
273.925780	2.20000000E+1	
274.414060	1.90000000E+1	
274.902340	2.20000000E+1	
275.390630	2.30000000E+1	
275.878910	1.40000000E+1	
276.367190	2.00000000E+1	
276.855470	2.20000000E+1	
277.343750	8.00000000E+0	
277.83200	2.30000000E+1	
278.320310	2.30000000E+1	
278.808590	1.80000000E+1	
279.296880	2.70000000E+1	
279.785160	2.30000000E+1	
280.273440	1.90000000E+1	
280.761720	1.90000000E+1	
281.2500	2.30000000E+1	
281.738280	2.20000000E+1	
282.226560	2.30000000E+1	
282.714840	2.10000000E+1	
283.203130	2.90000000E+1	
283.691410	2.10000000E+1	
284.179690	2.40000000E+1	
284.66800	1.90000000E+1	
285.156250	2.80000000E+1	
285.644530	1.90000000E+1	
286.132810	2.10000000E+1	
286.621090	2.70000000E+1	
287.109380	2.10000000E+1	
287.597660	2.30000000E+1	
288.085940	2.00000000E+1	
288.574220	2.60000000E+1	
289.062500	2.20000000E+1	
289.550780	1.70000000E+1	
290.039060	2.20000000E+1	
290.527340	2.30000000E+1	
291.015630	1.00000000E+1	
291.503910	1.90000000E+1	
291.992190	2.10000000E+1	
292.480470	2.20000000E+1	
292.968750	2.00000000E+1	
293.45700	2.20000000E+1	
293.945310	2.30000000E+1	
294.433590	3.00000000E+1	
294.921880	2.50000000E+1	
295.410160	1.90000000E+1	
295.898440	1.10000000E+1	
296.386720	2.90000000E+1	
296.87500	2.80000000E+1	
297.363280	1.30000000E+1	
297.851560	2.30000000E+1	
298.339840	1.10000000E+1	
298.828130	2.90000000E+1	
299.316410	1.30000000E+1	
299.804690	2.30000000E+1	
300.29300	2.40000000E+1	
300.781250	2.10000000E+1	
301.269530	2.70000000E+1	
301.757810	1.80000000E+1	
302.246090	2.00000000E+1	
302.734380	3.10000000E+1	
303.222660	2.10000000E+1	
303.710940	2.40000000E+1	
304.199220	1.90000000E+1	
304.687500	2.60000000E+1	
305.175780	1.70000000E+1	
305.664060	1.90000000E+1	
306.152340	2.70000000E+1	
306.640630	1.60000000E+1	
307.128910	1.70000000E+1	
307.617190	2.20000000E+1	
308.105470	1.80000000E+1	
308.593750	1.50000000E+1	
309.08200	1.60000000E+1	
309.570310	1.30000000E+1	
310.058590	2.30000000E+1	
310.546880	1.80000000E+1	
311.035160	2.50000000E+1	
311.523440	1.80000000E+1	
312.011720	1.90000000E+1	
312.500	2.20000000E+1	
312.988280	2.30000000E+1	
313.476560	2.30000000E+1	
313.964840	2.50000000E+1	
314.453130	2.50000000E+1	
314.941410	1.70000000E+1	
315.429690	1.90000000E+1	
315.91800	2.60000000E+1	
316.406250	2.00000000E+1	
316.894530	2.10000000E+1	
317.382810	2.00000000E+1	
317.871090	1.30000000E+1	
318.359380	1.40000000E+1	
318.847660	2.30000000E+1	
319.335940	2.00000000E+1	
319.824220	2.10000000E+1	
320.312500	1.50000000E+1	
320.800780	2.80000000E+1	
321.289060	1.90000000E+1	
321.777340	1.90000000E+1	
322.265630	1.60000000E+1	
322.753910	2.50000000E+1	
323.242190	1.70000000E+1	
323.730470	2.20000000E+1	
324.218750	1.90000000E+1	
324.70700	1.80000000E+1	
325.195310	1.50000000E+1	
325.683590	3.50000000E+1	
326.171880	2.50000000E+1	
326.660160	1.50000000E+1	
327.148440	1.50000000E+1	
327.636720	2.60000000E+1	
328.12500	2.10000000E+1	
328.613280	2.00000000E+1	
329.101560	2.00000000E+1	
329.589840	2.40000000E+1	
330.078130	1.70000000E+1	
330.566410	2.70000000E+1	
331.054690	3.30000000E+1	
331.54300	2.30000000E+1	
332.031250	2.50000000E+1	
332.519530	1.20000000E+1	
333.007810	2.40000000E+1	
333.496090	2.10000000E+1	
333.984380	1.40000000E+1	
334.472660	1.80000000E+1	
334.960940	1.90000000E+1	
335.449220	1.70000000E+1	
335.937500	3.30000000E+1	
336.425780	2.20000000E+1	
336.914060	1.70000000E+1	
337.402340	1.70000000E+1	
337.890630	1.40000000E+1	
338.378910	1.70000000E+1	
338.867190	2.20000000E+1	
339.355470	1.60000000E+1	
339.843750	1.90000000E+1	
340.33200	2.60000000E+1	
340.820310	1.90000000E+1	
341.308590	2.00000000E+1	
341.796880	1.60000000E+1	
342.285160	2.20000000E+1	
342.773440	1.90000000E+1	
343.261720	9.00000000E+0	
343.7500	2.10000000E+1	
344.238280	1.50000000E+1	
344.726560	1.40000000E+1	
345.214840	2.60000000E+1	
345.703130	2.00000000E+1	
346.191410	2.30000000E+1	
346.679690	2.40000000E+1	
347.16800	2.30000000E+1	
347.656250	2.40000000E+1	
348.144530	1.50000000E+1	
348.632810	1.90000000E+1	
349.121090	1.70000000E+1	
349.609380	1.20000000E+1	
350.097660	1.30000000E+1	
350.585940	2.20000000E+1	
351.074220	1.90000000E+1	
351.562500	2.20000000E+1	
352.050780	1.40000000E+1	
352.539060	2.00000000E+1	
353.027340	2.10000000E+1	
353.515630	2.60000000E+1	
354.003910	1.60000000E+1	
354.492190	2.40000000E+1	
354.980470	1.70000000E+1	
355.468750	2.20000000E+1	
355.95700	2.20000000E+1	
356.445310	2.20000000E+1	
356.933590	3.00000000E+1	
357.421880	2.00000000E+1	
357.910160	1.50000000E+1	
358.398440	2.00000000E+1	
358.886720	2.30000000E+1	
359.37500	2.00000000E+1	
359.863280	2.20000000E+1	
360.351560	1.50000000E+1	
360.839840	1.80000000E+1	
361.328130	2.30000000E+1	
361.816410	2.10000000E+1	
362.304690	2.00000000E+1	
362.79300	1.60000000E+1	
363.281250	2.10000000E+1	
363.769530	2.00000000E+1	
364.257810	1.30000000E+1	
364.746090	3.00000000E+1	
365.234380	2.70000000E+1	
365.722660	1.30000000E+1	
366.210940	2.70000000E+1	
366.699220	3.20000000E+1	
367.187500	1.80000000E+1	
367.675780	1.40000000E+1	
368.164060	1.30000000E+1	
368.652340	1.80000000E+1	
369.140630	2.00000000E+1	
369.628910	2.40000000E+1	
370.117190	1.90000000E+1	
370.605470	1.60000000E+1	
371.093750	1.10000000E+1	
371.58200	1.70000000E+1	
372.070310	2.20000000E+1	
372.558590	2.30000000E+1	
373.046880	1.80000000E+1	
373.535160	2.70000000E+1	
374.023440	2.00000000E+1	
374.511720	1.30000000E+1	
375.00	1.20000000E+1	
375.488280	1.40000000E+1	
375.976560	1.50000000E+1	
376.464840	1.50000000E+1	
376.953130	1.70000000E+1	
377.441410	1.40000000E+1	
377.929690	1.70000000E+1	
378.41800	2.20000000E+1	
378.906250	1.80000000E+1	
379.394530	1.60000000E+1	
379.882810	2.90000000E+1	
380.371090	1.70000000E+1	
380.859380	2.10000000E+1	
381.347660	2.60000000E+1	
381.835940	2.30000000E+1	
382.324220	1.90000000E+1	
382.812500	2.70000000E+1	
383.300780	1.90000000E+1	
383.789060	1.50000000E+1	
384.277340	2.00000000E+1	
384.765630	1.70000000E+1	
385.253910	1.40000000E+1	
385.742190	2.10000000E+1	
386.230470	2.10000000E+1	
386.718750	2.20000000E+1	
387.20700	2.50000000E+1	
387.695310	2.50000000E+1	
388.183590	1.90000000E+1	
388.671880	1.70000000E+1	
389.160160	1.80000000E+1	
389.648440	1.60000000E+1	
390.136720	1.70000000E+1	
390.62500	1.70000000E+1	
391.113280	2.90000000E+1	
391.601560	1.30000000E+1	
392.089840	1.80000000E+1	
392.578130	1.50000000E+1	
393.066410	1.70000000E+1	
393.554690	1.30000000E+1	
394.04300	2.20000000E+1	
394.531250	1.40000000E+1	
395.019530	1.60000000E+1	
395.507810	1.90000000E+1	
395.996090	1.60000000E+1	
396.484380	1.90000000E+1	
396.972660	2.40000000E+1	
397.460940	1.50000000E+1	
397.949220	2.40000000E+1	
398.437500	1.30000000E+1	
398.925780	2.30000000E+1	
399.414060	1.60000000E+1	
399.902340	1.80000000E+1	
400.390630	2.00000000E+1	
400.878910	2.10000000E+1	
401.367190	1.10000000E+1	
401.855470	1.00000000E+1	
402.343750	2.50000000E+1	
402.83200	1.60000000E+1	
403.320310	2.80000000E+1	
403.808590	1.80000000E+1	
404.296880	1.50000000E+1	
404.785160	1.80000000E+1	
405.273440	2.90000000E+1	
405.761720	1.40000000E+1	
406.2500	2.10000000E+1	
406.738280	1.50000000E+1	
407.226560	1.60000000E+1	
407.714840	1.30000000E+1	
408.203130	1.20000000E+1	
408.691410	2.00000000E+1	
409.179690	2.10000000E+1	
409.66800	1.50000000E+1	
410.156250	2.40000000E+1	
410.644530	1.80000000E+1	
411.132810	1.90000000E+1	
411.621090	1.90000000E+1	
412.109380	1.30000000E+1	
412.597660	2.00000000E+1	
413.085940	2.80000000E+1	
413.574220	1.10000000E+1	
414.062500	1.90000000E+1	
414.550780	1.20000000E+1	
415.039060	1.50000000E+1	
415.527340	2.30000000E+1	
416.015630	2.00000000E+1	
416.503910	1.80000000E+1	
416.992190	1.20000000E+1	
417.480470	2.00000000E+1	
417.968750	1.80000000E+1	
418.45700	2.00000000E+1	
418.945310	1.00000000E+1	
419.433590	2.10000000E+1	
419.921880	1.40000000E+1	
420.410160	1.50000000E+1	
420.898440	1.80000000E+1	
421.386720	2.10000000E+1	
421.87500	1.00000000E+1	
422.363280	1.60000000E+1	
422.851560	2.00000000E+1	
423.339840	1.40000000E+1	
423.828130	2.00000000E+1	
424.316410	1.50000000E+1	
424.804690	1.70000000E+1	
425.29300	2.00000000E+1	
425.781250	1.60000000E+1	
426.269530	1.20000000E+1	
426.757810	1.20000000E+1	
427.246090	1.40000000E+1	
427.734380	2.30000000E+1	
428.222660	1.90000000E+1	
428.710940	8.00000000E+0	
429.199220	1.80000000E+1	
429.687500	1.40000000E+1	
430.175780	2.60000000E+1	
430.664060	1.70000000E+1	
431.152340	2.90000000E+1	
431.640630	1.50000000E+1	
432.128910	1.40000000E+1	
432.617190	1.70000000E+1	
433.105470	1.20000000E+1	
433.593750	2.20000000E+1	
434.08200	1.90000000E+1	
434.570310	1.90000000E+1	
435.058590	1.40000000E+1	
435.546880	1.30000000E+1	
436.035160	1.10000000E+1	
436.523440	2.00000000E+1	
437.011720	1.10000000E+1	
437.500	1.30000000E+1	
437.988280	1.40000000E+1	
438.476560	1.90000000E+1	
438.964840	2.60000000E+1	
439.453130	2.20000000E+1	
439.941410	1.80000000E+1	
440.429690	2.00000000E+1	
440.91800	1.40000000E+1	
441.406250	1.70000000E+1	
441.894530	1.10000000E+1	
442.382810	1.60000000E+1	
442.871090	9.00000000E+0	
443.359380	2.20000000E+1	
443.847660	2.70000000E+1	
444.335940	2.30000000E+1	
444.824220	1.40000000E+1	
445.312500	1.70000000E+1	
445.800780	2.30000000E+1	
446.289060	2.50000000E+1	
446.777340	2.10000000E+1	
447.265630	1.70000000E+1	
447.753910	1.80000000E+1	
448.242190	1.10000000E+1	
448.730470	7.00000000E+0	
449.218750	1.90000000E+1	
449.70700	1.20000000E+1	
450.195310	2.40000000E+1	
450.683590	2.80000000E+1	
451.171880	1.80000000E+1	
451.660160	2.30000000E+1	
452.148440	1.00000000E+1	
452.636720	1.70000000E+1	
453.12500	1.70000000E+1	
453.613280	1.40000000E+1	
454.101560	1.10000000E+1	
454.589840	2.20000000E+1	
455.078130	1.50000000E+1	
455.566410	2.00000000E+1	
456.054690	1.40000000E+1	
456.54300	1.80000000E+1	
457.031250	2.50000000E+1	
457.519530	1.30000000E+1	
458.007810	2.10000000E+1	
458.496090	2.10000000E+1	
458.984380	1.80000000E+1	
459.472660	1.90000000E+1	
459.960940	1.30000000E+1	
460.449220	2.50000000E+1	
460.937500	1.50000000E+1	
461.425780	1.50000000E+1	
461.914060	2.50000000E+1	
462.402340	1.30000000E+1	
462.890630	1.20000000E+1	
463.378910	1.50000000E+1	
463.867190	1.60000000E+1	
464.355470	9.00000000E+0	
464.843750	1.10000000E+1	
465.33200	1.90000000E+1	
465.820310	1.70000000E+1	
466.308590	2.30000000E+1	
466.796880	2.20000000E+1	
467.285160	1.30000000E+1	
467.773440	1.50000000E+1	
468.261720	1.60000000E+1	
468.7500	1.20000000E+1	
469.238280	2.50000000E+1	
469.726560	1.90000000E+1	
470.214840	2.90000000E+1	
470.703130	1.60000000E+1	
471.191410	1.80000000E+1	
471.679690	2.70000000E+1	
472.16800	2.40000000E+1	
472.656250	1.60000000E+1	
473.144530	1.40000000E+1	
473.632810	1.90000000E+1	
474.121090	2.20000000E+1	
474.609380	1.10000000E+1	
475.097660	1.60000000E+1	
475.585940	2.30000000E+1	
476.074220	1.10000000E+1	
476.562500	1.00000000E+1	
477.050780	1.20000000E+1	
477.539060	1.30000000E+1	
478.027340	1.90000000E+1	
478.515630	1.50000000E+1	
479.003910	2.10000000E+1	
479.492190	1.00000000E+1	
479.980470	2.40000000E+1	
480.468750	2.00000000E+1	
480.95700	2.20000000E+1	
481.445310	2.20000000E+1	
481.933590	2.00000000E+1	
482.421880	2.30000000E+1	
482.910160	1.30000000E+1	
483.398440	1.50000000E+1	
483.886720	1.80000000E+1	
484.37500	1.40000000E+1	
484.863280	1.30000000E+1	
485.351560	1.80000000E+1	
485.839840	2.40000000E+1	
486.328130	1.10000000E+1	
486.816410	1.90000000E+1	
487.304690	1.10000000E+1	
487.79300	1.40000000E+1	
488.281250	2.00000000E+1	
488.769530	1.40000000E+1	
489.257810	1.50000000E+1	
489.746090	1.10000000E+1	
490.234380	1.70000000E+1	
490.722660	1.60000000E+1	
491.210940	1.00000000E+1	
491.699220	2.20000000E+1	
492.187500	2.00000000E+1	
492.675780	2.30000000E+1	
493.164060	2.30000000E+1	
493.652340	1.30000000E+1	
494.140630	1.60000000E+1	
494.628910	1.60000000E+1	
495.117190	1.10000000E+1	
495.605470	1.70000000E+1	
496.093750	2.00000000E+1	
496.58200	1.60000000E+1	
497.070310	1.40000000E+1	
497.558590	1.60000000E+1	
498.046880	1.10000000E+1	
498.535160	2.50000000E+1	
499.023440	2.30000000E+1	
499.511720	1.60000000E+1	
500.00	2.90000000E+1	
500.488280	2.00000000E+1	
500.976560	1.60000000E+1	
501.464840	1.30000000E+1	
501.953130	1.20000000E+1	
502.441410	1.40000000E+1	
502.929690	2.10000000E+1	
503.41800	2.10000000E+1	
503.906250	2.00000000E+1	
504.394530	1.50000000E+1	
504.882810	2.30000000E+1	
505.371090	1.80000000E+1	
505.859380	1.70000000E+1	
506.347660	1.20000000E+1	
506.835940	1.80000000E+1	
507.324220	1.70000000E+1	
507.812500	1.60000000E+1	
508.300780	1.60000000E+1	
508.789060	1.90000000E+1	
509.277340	2.10000000E+1	
509.765630	1.50000000E+1	
510.253910	1.20000000E+1	
510.742190	1.40000000E+1	
511.230470	1.70000000E+1	
511.718750	2.10000000E+1	
512.20700	1.30000000E+1	
512.695310	2.20000000E+1	
513.183590	1.50000000E+1	
513.671880	2.10000000E+1	
514.160160	1.90000000E+1	
514.648440	1.80000000E+1	
515.136720	8.00000000E+0	
515.62500	1.80000000E+1	
516.113280	1.30000000E+1	
516.601560	1.60000000E+1	
517.089840	1.90000000E+1	
517.578130	1.70000000E+1	
518.066410	1.50000000E+1	
518.554690	1.30000000E+1	
519.04300	1.50000000E+1	
519.531250	1.50000000E+1	
520.019530	1.80000000E+1	
520.507810	1.50000000E+1	
520.996090	1.60000000E+1	
521.484380	2.20000000E+1	
521.972660	1.70000000E+1	
522.460940	1.90000000E+1	
522.949220	1.20000000E+1	
523.437500	1.40000000E+1	
523.925780	2.40000000E+1	
524.414060	1.80000000E+1	
524.902340	1.70000000E+1	
525.390630	1.70000000E+1	
525.878910	1.20000000E+1	
526.367190	1.60000000E+1	
526.855470	1.30000000E+1	
527.343750	1.70000000E+1	
527.83200	1.20000000E+1	
528.320310	2.40000000E+1	
528.808590	1.60000000E+1	
529.296880	9.00000000E+0	
529.785160	2.00000000E+1	
530.273440	7.00000000E+0	
530.761720	2.50000000E+1	
531.2500	1.10000000E+1	
531.738280	1.40000000E+1	
532.226560	1.60000000E+1	
532.714840	1.90000000E+1	
533.203130	1.50000000E+1	
533.691410	1.40000000E+1	
534.179690	1.40000000E+1	
534.66800	1.80000000E+1	
535.156250	1.30000000E+1	
535.644530	1.70000000E+1	
536.132810	1.20000000E+1	
536.621090	1.80000000E+1	
537.109380	1.30000000E+1	
537.597660	1.60000000E+1	
538.085940	1.90000000E+1	
538.574220	1.90000000E+1	
539.062500	1.30000000E+1	
539.550780	2.10000000E+1	
540.039060	1.90000000E+1	
540.527340	3.00000000E+1	
541.015630	1.70000000E+1	
541.503910	1.10000000E+1	
541.992190	1.60000000E+1	
542.480470	1.10000000E+1	
542.968750	1.70000000E+1	
543.45700	2.10000000E+1	
543.945310	1.10000000E+1	
544.433590	1.40000000E+1	
544.921880	1.20000000E+1	
545.410160	2.10000000E+1	
545.898440	1.90000000E+1	
546.386720	1.90000000E+1	
546.87500	2.30000000E+1	
547.363280	1.50000000E+1	
547.851560	1.20000000E+1	
548.339840	1.00000000E+1	
548.828130	9.00000000E+0	
549.316410	1.60000000E+1	
549.804690	2.30000000E+1	
550.29300	1.10000000E+1	
550.781250	1.80000000E+1	
551.269530	1.40000000E+1	
551.757810	1.00000000E+1	
552.246090	2.00000000E+1	
552.734380	1.80000000E+1	
553.222660	9.00000000E+0	
553.710940	1.30000000E+1	
554.199220	7.00000000E+0	
554.687500	2.10000000E+1	
555.175780	1.30000000E+1	
555.664060	1.30000000E+1	
556.152340	1.50000000E+1	
556.640630	1.70000000E+1	
557.128910	1.40000000E+1	
557.617190	1.40000000E+1	
558.105470	1.00000000E+1	
558.593750	2.00000000E+1	
559.08200	1.70000000E+1	
559.570310	1.00000000E+1	
560.058590	1.60000000E+1	
560.546880	1.40000000E+1	
561.035160	2.00000000E+1	
561.523440	1.40000000E+1	
562.011720	1.70000000E+1	
562.500	1.80000000E+1	
562.988280	1.40000000E+1	
563.476560	1.20000000E+1	
563.964840	1.90000000E+1	
564.453130	1.00000000E+1	
564.941410	1.20000000E+1	
565.429690	1.40000000E+1	
565.91800	2.10000000E+1	
566.406250	1.90000000E+1	
566.894530	1.30000000E+1	
567.382810	2.30000000E+1	
567.871090	1.20000000E+1	
568.359380	1.60000000E+1	
568.847660	2.40000000E+1	
569.335940	1.00000000E+1	
569.824220	2.50000000E+1	
570.312500	1.90000000E+1	
570.800780	1.30000000E+1	
571.289060	2.00000000E+1	
571.777340	1.90000000E+1	
572.265630	1.20000000E+1	
572.753910	1.20000000E+1	
573.242190	2.00000000E+1	
573.730470	1.00000000E+1	
574.218750	9.00000000E+0	
574.70700	1.70000000E+1	
575.195310	1.50000000E+1	
575.683590	1.20000000E+1	
576.171880	1.50000000E+1	
576.660160	2.30000000E+1	
577.148440	1.20000000E+1	
577.636720	1.60000000E+1	
578.12500	1.40000000E+1	
578.613280	1.80000000E+1	
579.101560	2.00000000E+1	
579.589840	1.20000000E+1	
580.078130	1.20000000E+1	
580.566410	7.00000000E+0	
581.054690	1.10000000E+1	
581.54300	2.30000000E+1	
582.031250	1.60000000E+1	
582.519530	1.40000000E+1	
583.007810	2.00000000E+1	
583.496090	1.30000000E+1	
583.984380	1.60000000E+1	
584.472660	1.10000000E+1	
584.960940	1.50000000E+1	
585.449220	8.00000000E+0	
585.937500	1.90000000E+1	
586.425780	2.00000000E+1	
586.914060	2.20000000E+1	
587.402340	1.90000000E+1	
587.890630	1.50000000E+1	
588.378910	1.60000000E+1	
588.867190	1.80000000E+1	
589.355470	1.00000000E+1	
589.843750	2.30000000E+1	
590.33200	1.40000000E+1	
590.820310	1.80000000E+1	
591.308590	1.10000000E+1	
591.796880	2.30000000E+1	
592.285160	1.50000000E+1	
592.773440	1.40000000E+1	
593.261720	1.80000000E+1	
593.7500	2.20000000E+1	
594.238280	1.30000000E+1	
594.726560	1.90000000E+1	
595.214840	2.40000000E+1	
595.703130	1.90000000E+1	
596.191410	1.00000000E+1	
596.679690	1.40000000E+1	
597.16800	2.20000000E+1	
597.656250	2.10000000E+1	
598.144530	1.20000000E+1	
598.632810	1.80000000E+1	
599.121090	1.10000000E+1	
599.609380	1.30000000E+1	
600.097660	1.80000000E+1	
600.585940	1.30000000E+1	
601.074220	1.30000000E+1	
601.562500	1.60000000E+1	
602.050780	1.70000000E+1	
602.539060	1.60000000E+1	
603.027340	1.30000000E+1	
603.515630	1.50000000E+1	
604.003910	1.20000000E+1	
604.492190	1.20000000E+1	
604.980470	1.30000000E+1	
605.468750	1.80000000E+1	
605.95700	1.80000000E+1	
606.445310	1.30000000E+1	
606.933590	1.30000000E+1	
607.421880	1.20000000E+1	
607.910160	1.20000000E+1	
608.398440	9.00000000E+0	
608.886720	1.20000000E+1	
609.37500	1.70000000E+1	
609.863280	1.50000000E+1	
610.351560	1.10000000E+1	
610.839840	1.80000000E+1	
611.328130	1.00000000E+1	
611.816410	1.10000000E+1	
612.304690	1.40000000E+1	
612.79300	1.20000000E+1	
613.281250	1.80000000E+1	
613.769530	1.60000000E+1	
614.257810	1.70000000E+1	
614.746090	1.30000000E+1	
615.234380	2.20000000E+1	
615.722660	1.90000000E+1	
616.210940	1.10000000E+1	
616.699220	1.70000000E+1	
617.187500	1.20000000E+1	
617.675780	9.00000000E+0	
618.164060	1.70000000E+1	
618.652340	1.70000000E+1	
619.140630	7.00000000E+0	
619.628910	1.50000000E+1	
620.117190	1.40000000E+1	
620.605470	1.50000000E+1	
621.093750	1.80000000E+1	
621.58200	1.70000000E+1	
622.070310	1.80000000E+1	
622.558590	1.00000000E+1	
623.046880	1.80000000E+1	
623.535160	1.30000000E+1	
624.023440	1.40000000E+1	
624.511720	2.00000000E+1	
625.00	1.90000000E+1	
625.488280	1.80000000E+1	
625.976560	1.30000000E+1	
626.464840	1.50000000E+1	
626.953130	1.30000000E+1	
627.441410	1.00000000E+1	
627.929690	1.70000000E+1	
628.41800	2.30000000E+1	
628.906250	2.10000000E+1	
629.394530	1.60000000E+1	
629.882810	1.40000000E+1	
630.371090	1.40000000E+1	
630.859380	1.90000000E+1	
631.347660	1.00000000E+1	
631.835940	2.10000000E+1	
632.324220	1.50000000E+1	
632.812500	1.40000000E+1	
633.300780	1.50000000E+1	
633.789060	5.00000000E+0	
634.277340	1.20000000E+1	
634.765630	1.60000000E+1	
635.253910	1.10000000E+1	
635.742190	2.10000000E+1	
636.230470	9.00000000E+0	
636.718750	1.00000000E+1	
637.20700	2.00000000E+1	
637.695310	1.20000000E+1	
638.183590	2.80000000E+1	
638.671880	1.70000000E+1	
639.160160	1.20000000E+1	
639.648440	1.90000000E+1	
640.136720	1.80000000E+1	
640.62500	1.20000000E+1	
641.113280	9.00000000E+0	
641.601560	1.70000000E+1	
642.089840	1.00000000E+1	
642.578130	1.30000000E+1	
643.066410	1.50000000E+1	
643.554690	1.20000000E+1	
644.04300	1.30000000E+1	
644.531250	1.60000000E+1	
645.019530	1.00000000E+1	
645.507810	2.10000000E+1	
645.996090	1.40000000E+1	
646.484380	7.00000000E+0	
646.972660	1.60000000E+1	
647.460940	2.00000000E+1	
647.949220	1.70000000E+1	
648.437500	1.10000000E+1	
648.925780	1.30000000E+1	
649.414060	1.40000000E+1	
649.902340	2.00000000E+1	
650.390630	7.00000000E+0	
650.878910	6.00000000E+0	
651.367190	1.70000000E+1	
651.855470	1.30000000E+1	
652.343750	1.90000000E+1	
652.83200	1.30000000E+1	
653.320310	8.00000000E+0	
653.808590	1.30000000E+1	
654.296880	2.00000000E+1	
654.785160	1.70000000E+1	
655.273440	1.70000000E+1	
655.761720	1.70000000E+1	
656.2500	2.00000000E+1	
656.738280	1.20000000E+1	
657.226560	1.60000000E+1	
657.714840	1.90000000E+1	
658.203130	9.00000000E+0	
658.691410	2.20000000E+1	
659.179690	1.50000000E+1	
659.66800	1.40000000E+1	
660.156250	1.50000000E+1	
660.644530	1.80000000E+1	
661.132810	1.50000000E+1	
661.621090	1.30000000E+1	
662.109380	9.00000000E+0	
662.597660	1.00000000E+1	
663.085940	2.10000000E+1	
663.574220	1.20000000E+1	
664.062500	7.00000000E+0	
664.550780	7.00000000E+0	
665.039060	3.00000000E+0	
665.527340	1.60000000E+1	
666.015630	1.40000000E+1	
666.503910	9.00000000E+0	
666.992190	1.50000000E+1	
667.480470	1.60000000E+1	
667.968750	1.40000000E+1	
668.45700	1.30000000E+1	
668.945310	2.10000000E+1	
669.433590	1.40000000E+1	
669.921880	1.10000000E+1	
670.410160	1.40000000E+1	
670.898440	2.00000000E+1	
671.386720	1.50000000E+1	
671.87500	1.50000000E+1	
672.363280	1.30000000E+1	
672.851560	1.80000000E+1	
673.339840	8.00000000E+0	
673.828130	1.60000000E+1	
674.316410	1.20000000E+1	
674.804690	1.80000000E+1	
675.29300	1.30000000E+1	
675.781250	9.00000000E+0	
676.269530	1.80000000E+1	
676.757810	1.50000000E+1	
677.246090	1.00000000E+1	
677.734380	1.10000000E+1	
678.222660	1.60000000E+1	
678.710940	1.60000000E+1	
679.199220	1.70000000E+1	
679.687500	9.00000000E+0	
680.175780	1.60000000E+1	
680.664060	9.00000000E+0	
681.152340	1.20000000E+1	
681.640630	1.60000000E+1	
682.128910	1.70000000E+1	
682.617190	2.00000000E+1	
683.105470	1.30000000E+1	
683.593750	1.60000000E+1	
684.08200	1.70000000E+1	
684.570310	1.40000000E+1	
685.058590	1.40000000E+1	
685.546880	2.00000000E+1	
686.035160	5.00000000E+0	
686.523440	1.40000000E+1	
687.011720	1.90000000E+1	
687.500	1.40000000E+1	
687.988280	9.00000000E+0	
688.476560	1.00000000E+1	
688.964840	1.70000000E+1	
689.453130	9.00000000E+0	
689.941410	1.20000000E+1	
690.429690	1.20000000E+1	
690.91800	1.40000000E+1	
691.406250	1.20000000E+1	
691.894530	2.30000000E+1	
692.382810	1.50000000E+1	
692.871090	7.00000000E+0	
693.359380	1.40000000E+1	
693.847660	1.40000000E+1	
694.335940	1.50000000E+1	
694.824220	1.80000000E+1	
695.312500	1.10000000E+1	
695.800780	1.30000000E+1	
696.289060	1.60000000E+1	
696.777340	5.00000000E+0	
697.265630	1.30000000E+1	
697.753910	8.00000000E+0	
698.242190	1.30000000E+1	
698.730470	1.50000000E+1	
699.218750	1.00000000E+1	
699.70700	6.00000000E+0	
700.195310	1.20000000E+1	
700.683590	1.20000000E+1	
701.171880	1.80000000E+1	
701.660160	2.20000000E+1	
702.148440	1.00000000E+1	
702.636720	1.30000000E+1	
703.12500	1.00000000E+1	
703.613280	1.50000000E+1	
704.101560	1.00000000E+1	
704.589840	1.10000000E+1	
705.078130	1.50000000E+1	
705.566410	1.70000000E+1	
706.054690	1.10000000E+1	
706.54300	1.30000000E+1	
707.031250	1.40000000E+1	
707.519530	1.20000000E+1	
708.007810	8.00000000E+0	
708.496090	1.10000000E+1	
708.984380	1.20000000E+1	
709.472660	1.00000000E+1	
709.960940	1.70000000E+1	
710.449220	7.00000000E+0	
710.937500	8.00000000E+0	
711.425780	1.10000000E+1	
711.914060	1.10000000E+1	
712.402340	1.30000000E+1	
712.890630	1.70000000E+1	
713.378910	6.00000000E+0	
713.867190	1.10000000E+1	
714.355470	1.60000000E+1	
714.843750	8.00000000E+0	
715.33200	1.50000000E+1	
715.820310	1.40000000E+1	
716.308590	1.50000000E+1	
716.796880	2.70000000E+1	
717.285160	1.50000000E+1	
717.773440	1.80000000E+1	
718.261720	2.00000000E+1	
718.7500	9.00000000E+0	
719.238280	1.60000000E+1	
719.726560	1.30000000E+1	
720.214840	1.20000000E+1	
720.703130	1.20000000E+1	
721.191410	1.60000000E+1	
721.679690	1.20000000E+1	
722.16800	9.00000000E+0	
722.656250	1.20000000E+1	
723.144530	2.30000000E+1	
723.632810	1.10000000E+1	
724.121090	1.50000000E+1	
724.609380	1.40000000E+1	
725.097660	1.20000000E+1	
725.585940	1.20000000E+1	
726.074220	1.30000000E+1	
726.562500	1.20000000E+1	
727.050780	1.50000000E+1	
727.539060	9.00000000E+0	
728.027340	1.50000000E+1	
728.515630	1.50000000E+1	
729.003910	1.40000000E+1	
729.492190	1.10000000E+1	
729.980470	1.60000000E+1	
730.468750	1.50000000E+1	
730.95700	1.40000000E+1	
731.445310	1.60000000E+1	
731.933590	1.20000000E+1	
732.421880	1.20000000E+1	
732.910160	9.00000000E+0	
733.398440	1.10000000E+1	
733.886720	1.30000000E+1	
734.37500	1.30000000E+1	
734.863280	5.00000000E+0	
735.351560	1.90000000E+1	
735.839840	1.80000000E+1	
736.328130	1.20000000E+1	
736.816410	1.40000000E+1	
737.304690	1.80000000E+1	
737.79300	1.70000000E+1	
738.281250	8.00000000E+0	
738.769530	9.00000000E+0	
739.257810	1.30000000E+1	
739.746090	1.20000000E+1	
740.234380	8.00000000E+0	
740.722660	1.20000000E+1	
741.210940	1.30000000E+1	
741.699220	1.60000000E+1	
742.187500	1.40000000E+1	
742.675780	1.30000000E+1	
743.164060	1.20000000E+1	
743.652340	1.70000000E+1	
744.140630	1.00000000E+1	
744.628910	1.20000000E+1	
745.117190	1.50000000E+1	
745.605470	8.00000000E+0	
746.093750	1.30000000E+1	
746.58200	1.20000000E+1	
747.070310	1.40000000E+1	
747.558590	1.50000000E+1	
748.046880	1.00000000E+1	
748.535160	1.70000000E+1	
749.023440	9.00000000E+0	
749.511720	1.60000000E+1	
750.00	1.50000000E+1	
750.488280	1.10000000E+1	
750.976560	8.00000000E+0	
751.464840	8.00000000E+0	
751.953130	1.10000000E+1	
752.441410	1.30000000E+1	
752.929690	1.20000000E+1	
753.41800	9.00000000E+0	
753.906250	1.40000000E+1	
754.394530	1.30000000E+1	
754.882810	1.50000000E+1	
755.371090	9.00000000E+0	
755.859380	8.00000000E+0	
756.347660	1.10000000E+1	
756.835940	1.60000000E+1	
757.324220	1.50000000E+1	
757.812500	6.00000000E+0	
758.300780	1.60000000E+1	
758.789060	1.60000000E+1	
759.277340	1.40000000E+1	
759.765630	1.70000000E+1	
760.253910	9.00000000E+0	
760.742190	1.20000000E+1	
761.230470	1.60000000E+1	
761.718750	1.30000000E+1	
762.20700	1.50000000E+1	
762.695310	1.20000000E+1	
763.183590	1.20000000E+1	
763.671880	1.50000000E+1	
764.160160	1.50000000E+1	
764.648440	1.00000000E+1	
765.136720	1.40000000E+1	
765.62500	1.60000000E+1	
766.113280	7.00000000E+0	
766.601560	1.50000000E+1	
767.089840	7.00000000E+0	
767.578130	1.10000000E+1	
768.066410	1.40000000E+1	
768.554690	1.30000000E+1	
769.04300	2.20000000E+1	
769.531250	1.20000000E+1	
770.019530	1.60000000E+1	
770.507810	8.00000000E+0	
770.996090	1.60000000E+1	
771.484380	1.70000000E+1	
771.972660	1.20000000E+1	
772.460940	1.50000000E+1	
772.949220	1.60000000E+1	
773.437500	1.30000000E+1	
773.925780	1.20000000E+1	
774.414060	9.00000000E+0	
774.902340	1.40000000E+1	
775.390630	1.20000000E+1	
775.878910	1.60000000E+1	
776.367190	1.40000000E+1	
776.855470	1.90000000E+1	
777.343750	9.00000000E+0	
777.83200	1.70000000E+1	
778.320310	7.00000000E+0	
778.808590	1.30000000E+1	
779.296880	9.00000000E+0	
779.785160	6.00000000E+0	
780.273440	1.30000000E+1	
780.761720	1.70000000E+1	
781.2500	1.10000000E+1	
781.738280	8.00000000E+0	
782.226560	1.30000000E+1	
782.714840	1.50000000E+1	
783.203130	1.50000000E+1	
783.691410	1.40000000E+1	
784.179690	1.20000000E+1	
784.66800	1.90000000E+1	
785.156250	1.90000000E+1	
785.644530	1.30000000E+1	
786.132810	1.10000000E+1	
786.621090	1.30000000E+1	
787.109380	8.00000000E+0	
787.597660	1.40000000E+1	
788.085940	1.20000000E+1	
788.574220	8.00000000E+0	
789.062500	1.80000000E+1	
789.550780	1.30000000E+1	
790.039060	1.20000000E+1	
790.527340	1.00000000E+1	
791.015630	6.00000000E+0	
791.503910	1.30000000E+1	
791.992190	1.30000000E+1	
792.480470	1.50000000E+1	
792.968750	1.30000000E+1	
793.45700	1.30000000E+1	
793.945310	1.40000000E+1	
794.433590	1.80000000E+1	
794.921880	1.50000000E+1	
795.410160	1.30000000E+1	
795.898440	2.20000000E+1	
796.386720	2.10000000E+1	
796.87500	1.40000000E+1	
797.363280	7.00000000E+0	
797.851560	1.10000000E+1	
798.339840	1.50000000E+1	
798.828130	1.60000000E+1	
799.316410	1.50000000E+1	
799.804690	6.00000000E+0	
800.29300	1.20000000E+1	
800.781250	9.00000000E+0	
801.269530	1.30000000E+1	
801.757810	1.50000000E+1	
802.246090	1.70000000E+1	
802.734380	8.00000000E+0	
803.222660	1.70000000E+1	
803.710940	5.00000000E+0	
804.199220	1.00000000E+1	
804.687500	1.40000000E+1	
805.175780	1.00000000E+1	
805.664060	1.60000000E+1	
806.152340	1.20000000E+1	
806.640630	1.40000000E+1	
807.128910	4.00000000E+0	
807.617190	1.20000000E+1	
808.105470	1.20000000E+1	
808.593750	1.40000000E+1	
809.08200	1.80000000E+1	
809.570310	9.00000000E+0	
810.058590	1.30000000E+1	
810.546880	1.00000000E+1	
811.035160	1.30000000E+1	
811.523440	1.80000000E+1	
812.011720	1.10000000E+1	
812.500	9.00000000E+0	
812.988280	1.10000000E+1	
813.476560	1.30000000E+1	
813.964840	1.00000000E+1	
814.453130	7.00000000E+0	
814.941410	1.30000000E+1	
815.429690	1.30000000E+1	
815.91800	1.00000000E+1	
816.406250	1.20000000E+1	
816.894530	1.10000000E+1	
817.382810	8.00000000E+0	
817.871090	1.60000000E+1	
818.359380	1.40000000E+1	
818.847660	9.00000000E+0	
819.335940	1.10000000E+1	
819.824220	8.00000000E+0	
820.312500	1.50000000E+1	
820.800780	1.00000000E+1	
821.289060	1.60000000E+1	
821.777340	1.20000000E+1	
822.265630	1.00000000E+1	
822.753910	1.60000000E+1	
823.242190	1.80000000E+1	
823.730470	1.90000000E+1	
824.218750	1.30000000E+1	
824.70700	9.00000000E+0	
825.195310	1.30000000E+1	
825.683590	1.10000000E+1	
826.171880	1.20000000E+1	
826.660160	9.00000000E+0	
827.148440	1.60000000E+1	
827.636720	1.70000000E+1	
828.12500	1.00000000E+1	
828.613280	1.00000000E+1	
829.101560	1.20000000E+1	
829.589840	1.30000000E+1	
830.078130	1.50000000E+1	
830.566410	1.80000000E+1	
831.054690	1.30000000E+1	
831.54300	1.90000000E+1	
832.031250	1.40000000E+1	
832.519530	1.90000000E+1	
833.007810	1.50000000E+1	
833.496090	1.40000000E+1	
833.984380	1.00000000E+1	
834.472660	5.00000000E+0	
834.960940	1.30000000E+1	
835.449220	8.00000000E+0	
835.937500	1.30000000E+1	
836.425780	1.00000000E+1	
836.914060	1.10000000E+1	
837.402340	1.70000000E+1	
837.890630	1.60000000E+1	
838.378910	9.00000000E+0	
838.867190	1.30000000E+1	
839.355470	1.30000000E+1	
839.843750	1.10000000E+1	
840.33200	1.00000000E+1	
840.820310	1.50000000E+1	
841.308590	1.40000000E+1	
841.796880	7.00000000E+0	
842.285160	1.10000000E+1	
842.773440	1.10000000E+1	
843.261720	1.90000000E+1	
843.7500	9.00000000E+0	
844.238280	1.40000000E+1	
844.726560	9.00000000E+0	
845.214840	1.90000000E+1	
845.703130	1.60000000E+1	
846.191410	1.00000000E+1	
846.679690	1.40000000E+1	
847.16800	6.00000000E+0	
847.656250	1.10000000E+1	
848.144530	1.10000000E+1	
848.632810	6.00000000E+0	
849.121090	1.20000000E+1	
849.609380	2.10000000E+1	
850.097660	1.40000000E+1	
850.585940	1.10000000E+1	
851.074220	2.00000000E+1	
851.562500	9.00000000E+0	
852.050780	1.40000000E+1	
852.539060	8.00000000E+0	
853.027340	9.00000000E+0	
853.515630	1.80000000E+1	
854.003910	6.00000000E+0	
854.492190	1.40000000E+1	
854.980470	1.40000000E+1	
855.468750	1.10000000E+1	
855.95700	1.50000000E+1	
856.445310	1.10000000E+1	
856.933590	1.50000000E+1	
857.421880	8.00000000E+0	
857.910160	1.10000000E+1	
858.398440	7.00000000E+0	
858.886720	1.70000000E+1	
859.37500	1.30000000E+1	
859.863280	1.30000000E+1	
860.351560	1.10000000E+1	
860.839840	1.50000000E+1	
861.328130	1.70000000E+1	
861.816410	1.40000000E+1	
862.304690	1.30000000E+1	
862.79300	1.30000000E+1	
863.281250	1.30000000E+1	
863.769530	1.20000000E+1	
864.257810	1.30000000E+1	
864.746090	1.40000000E+1	
865.234380	1.10000000E+1	
865.722660	1.10000000E+1	
866.210940	7.00000000E+0	
866.699220	1.10000000E+1	
867.187500	1.20000000E+1	
867.675780	1.00000000E+1	
868.164060	1.50000000E+1	
868.652340	1.20000000E+1	
869.140630	1.00000000E+1	
869.628910	7.00000000E+0	
870.117190	1.30000000E+1	
870.605470	1.00000000E+1	
871.093750	1.40000000E+1	
871.58200	8.00000000E+0	
872.070310	8.00000000E+0	
872.558590	1.30000000E+1	
873.046880	1.00000000E+1	
873.535160	1.20000000E+1	
874.023440	1.30000000E+1	
874.511720	1.20000000E+1	
875.00	6.00000000E+0	
875.488280	7.00000000E+0	
875.976560	1.20000000E+1	
876.464840	1.20000000E+1	
876.953130	1.20000000E+1	
877.441410	4.00000000E+0	
877.929690	1.60000000E+1	
878.41800	1.40000000E+1	
878.906250	9.00000000E+0	
879.394530	1.00000000E+1	
879.882810	1.00000000E+1	
880.371090	1.00000000E+1	
880.859380	5.00000000E+0	
881.347660	1.10000000E+1	
881.835940	9.00000000E+0	
882.324220	1.40000000E+1	
882.812500	1.20000000E+1	
883.300780	9.00000000E+0	
883.789060	8.00000000E+0	
884.277340	1.90000000E+1	
884.765630	1.30000000E+1	
885.253910	1.20000000E+1	
885.742190	1.50000000E+1	
886.230470	1.10000000E+1	
886.718750	1.50000000E+1	
887.20700	1.80000000E+1	
887.695310	5.00000000E+0	
888.183590	1.50000000E+1	
888.671880	1.00000000E+1	
889.160160	1.00000000E+1	
889.648440	7.00000000E+0	
890.136720	7.00000000E+0	
890.62500	9.00000000E+0	
891.113280	1.20000000E+1	
891.601560	1.00000000E+1	
892.089840	1.30000000E+1	
892.578130	1.50000000E+1	
893.066410	6.00000000E+0	
893.554690	1.10000000E+1	
894.04300	1.30000000E+1	
894.531250	6.00000000E+0	
895.019530	1.00000000E+1	
895.507810	1.60000000E+1	
895.996090	1.40000000E+1	
896.484380	3.00000000E+0	
896.972660	9.00000000E+0	
897.460940	1.80000000E+1	
897.949220	1.10000000E+1	
898.437500	1.00000000E+1	
898.925780	1.00000000E+1	
899.414060	7.00000000E+0	
899.902340	1.20000000E+1	
900.390630	9.00000000E+0	
900.878910	1.20000000E+1	
901.367190	1.10000000E+1	
901.855470	1.50000000E+1	
902.343750	1.10000000E+1	
902.83200	1.60000000E+1	
903.320310	1.40000000E+1	
903.808590	2.00000000E+1	
904.296880	1.20000000E+1	
904.785160	1.40000000E+1	
905.273440	9.00000000E+0	
905.761720	6.00000000E+0	
906.2500	1.00000000E+1	
906.738280	1.60000000E+1	
907.226560	9.00000000E+0	
907.714840	1.50000000E+1	
908.203130	1.20000000E+1	
908.691410	9.00000000E+0	
909.179690	1.40000000E+1	
909.66800	1.20000000E+1	
910.156250	6.00000000E+0	
910.644530	1.10000000E+1	
911.132810	1.20000000E+1	
911.621090	8.00000000E+0	
912.109380	1.00000000E+1	
912.597660	1.10000000E+1	
913.085940	1.10000000E+1	
913.574220	8.00000000E+0	
914.062500	1.00000000E+1	
914.550780	6.00000000E+0	
915.039060	1.10000000E+1	
915.527340	5.00000000E+0	
916.015630	1.50000000E+1	
916.503910	1.70000000E+1	
916.992190	9.00000000E+0	
917.480470	1.40000000E+1	
917.968750	1.20000000E+1	
918.45700	1.70000000E+1	
918.945310	1.50000000E+1	
919.433590	1.30000000E+1	
919.921880	1.30000000E+1	
920.410160	7.00000000E+0	
920.898440	1.00000000E+1	
921.386720	7.00000000E+0	
921.87500	7.00000000E+0	
922.363280	8.00000000E+0	
922.851560	1.60000000E+1	
923.339840	1.20000000E+1	
923.828130	1.40000000E+1	
924.316410	9.00000000E+0	
924.804690	1.80000000E+1	
925.29300	1.10000000E+1	
925.781250	1.30000000E+1	
926.269530	9.00000000E+0	
926.757810	1.20000000E+1	
927.246090	1.50000000E+1	
927.734380	1.20000000E+1	
928.222660	1.60000000E+1	
928.710940	9.00000000E+0	
929.199220	1.00000000E+1	
929.687500	1.50000000E+1	
930.175780	1.00000000E+1	
930.664060	1.30000000E+1	
931.152340	1.20000000E+1	
931.640630	9.00000000E+0	
932.128910	1.80000000E+1	
932.617190	9.00000000E+0	
933.105470	6.00000000E+0	
933.593750	5.00000000E+0	
934.08200	1.40000000E+1	
934.570310	1.00000000E+1	
935.058590	9.00000000E+0	
935.546880	1.30000000E+1	
936.035160	1.50000000E+1	
936.523440	1.20000000E+1	
937.011720	1.10000000E+1	
937.500	1.40000000E+1	
937.988280	1.60000000E+1	
938.476560	1.40000000E+1	
938.964840	9.00000000E+0	
939.453130	1.30000000E+1	
939.941410	1.10000000E+1	
940.429690	8.00000000E+0	
940.91800	7.00000000E+0	
941.406250	1.10000000E+1	
941.894530	6.00000000E+0	
942.382810	8.00000000E+0	
942.871090	7.00000000E+0	
943.359380	1.70000000E+1	
943.847660	1.20000000E+1	
944.335940	1.20000000E+1	
944.824220	8.00000000E+0	
945.312500	1.20000000E+1	
945.800780	9.00000000E+0	
946.289060	1.20000000E+1	
946.777340	9.00000000E+0	
947.265630	1.30000000E+1	
947.753910	1.30000000E+1	
948.242190	1.10000000E+1	
948.730470	9.00000000E+0	
949.218750	1.10000000E+1	
949.70700	4.00000000E+0	
950.195310	1.70000000E+1	
950.683590	6.00000000E+0	
951.171880	1.30000000E+1	
951.660160	1.00000000E+1	
952.148440	1.20000000E+1	
952.636720	1.10000000E+1	
953.12500	1.40000000E+1	
953.613280	8.00000000E+0	
954.101560	6.00000000E+0	
954.589840	1.20000000E+1	
955.078130	1.00000000E+1	
955.566410	1.40000000E+1	
956.054690	7.00000000E+0	
956.54300	1.50000000E+1	
957.031250	1.40000000E+1	
957.519530	1.30000000E+1	
958.007810	1.70000000E+1	
958.496090	1.90000000E+1	
958.984380	1.00000000E+1	
959.472660	9.00000000E+0	
959.960940	9.00000000E+0	
960.449220	6.00000000E+0	
960.937500	1.20000000E+1	
961.425780	7.00000000E+0	
961.914060	8.00000000E+0	
962.402340	1.00000000E+1	
962.890630	1.00000000E+1	
963.378910	1.10000000E+1	
963.867190	1.10000000E+1	
964.355470	8.00000000E+0	
964.843750	1.10000000E+1	
965.33200	1.50000000E+1	
965.820310	1.00000000E+1	
966.308590	8.00000000E+0	
966.796880	7.00000000E+0	
967.285160	7.00000000E+0	
967.773440	3.00000000E+0	
968.261720	1.60000000E+1	
968.7500	1.20000000E+1	
969.238280	1.00000000E+1	
969.726560	1.20000000E+1	
970.214840	1.70000000E+1	
970.703130	1.30000000E+1	
971.191410	1.60000000E+1	
971.679690	9.00000000E+0	
972.16800	7.00000000E+0	
972.656250	1.30000000E+1	
973.144530	9.00000000E+0	
973.632810	8.00000000E+0	
974.121090	1.00000000E+1	
974.609380	6.00000000E+0	
975.097660	8.00000000E+0	
975.585940	1.20000000E+1	
976.074220	1.40000000E+1	
976.562500	6.00000000E+0	
977.050780	1.10000000E+1	
977.539060	1.00000000E+1	
978.027340	1.20000000E+1	
978.515630	1.60000000E+1	
979.003910	1.70000000E+1	
979.492190	1.10000000E+1	
979.980470	1.00000000E+1	
980.468750	1.00000000E+1	
980.95700	8.00000000E+0	
981.445310	1.10000000E+1	
981.933590	1.30000000E+1	
982.421880	1.00000000E+1	
982.910160	1.40000000E+1	
983.398440	9.00000000E+0	
983.886720	1.00000000E+1	
984.37500	1.00000000E+1	
984.863280	1.90000000E+1	
985.351560	1.00000000E+1	
985.839840	4.00000000E+0	
986.328130	6.00000000E+0	
986.816410	1.70000000E+1	
987.304690	7.00000000E+0	
987.79300	1.00000000E+1	
988.281250	9.00000000E+0	
988.769530	1.10000000E+1	
989.257810	1.30000000E+1	
989.746090	5.00000000E+0	
990.234380	7.00000000E+0	
990.722660	1.40000000E+1	
991.210940	9.00000000E+0	
991.699220	7.00000000E+0	
992.187500	1.00000000E+1	
992.675780	9.00000000E+0	
993.164060	3.00000000E+0	
993.652340	9.00000000E+0	
994.140630	8.00000000E+0	
994.628910	1.00000000E+1	
995.117190	7.00000000E+0	
995.605470	1.30000000E+1	
996.093750	1.60000000E+1	
996.58200	5.00000000E+0	
997.070310	8.00000000E+0	
997.558590	1.10000000E+1	
998.046880	1.10000000E+1	
998.535160	1.40000000E+1	
999.023440	5.00000000E+0	
999.511720	6.00000000E+0	
